
time,ax,ay,az,wx,wy,wz,
0.003,-0.20,-0.09,-1.68,-0.48,0.18,0.16,
0.004,-0.20,-0.09,-1.68,-0.49,0.17,0.16,
0.004,-0.20,-0.09,-1.68,-0.52,0.15,0.16,
0.004,-0.20,-0.09,-1.68,-0.54,0.13,0.16,
0.005,-0.02,0.00,-0.87,-0.54,0.13,0.16,
0.005,-0.02,0.00,-0.87,-0.55,0.11,0.16,
0.005,-0.02,0.00,-0.87,-0.57,0.08,0.16,
0.006,-0.02,0.00,-0.87,-0.57,0.08,0.16,
0.006,-0.02,0.00,-0.87,-0.57,0.06,0.16,
0.006,-0.02,0.00,-0.87,-0.56,0.04,0.15,
0.006,-0.01,0.00,0.10,-0.56,0.04,0.15,
0.007,-0.01,0.00,0.10,-0.55,0.03,0.15,
0.007,-0.01,0.00,0.10,-0.52,0.01,0.16,
0.007,-0.01,0.00,0.10,-0.50,0.01,0.16,
0.008,-0.01,0.00,0.10,-0.48,0.00,0.16,
0.008,-0.01,0.00,0.10,-0.45,-0.01,0.17,
0.008,-0.15,-0.09,0.97,-0.45,-0.01,0.17,
0.009,-0.15,-0.09,0.97,-0.42,-0.01,0.17,
0.009,-0.15,-0.09,0.97,-0.38,-0.02,0.17,
0.009,-0.15,-0.09,0.97,-0.36,-0.02,0.17,
0.009,-0.15,-0.09,0.97,-0.33,-0.02,0.16,
0.01,-0.15,-0.09,0.97,-0.29,-0.02,0.16,
0.01,0.14,-0.19,1.54,-0.29,-0.02,0.16,
0.01,0.14,-0.19,1.54,-0.26,-0.02,0.15,
0.013,0.14,-0.19,1.54,-0.21,-0.01,0.14,
0.014,0.14,-0.19,1.54,-0.19,-0.00,0.14,
0.015,0.14,-0.19,1.54,-0.15,0.01,0.13,
0.017,0.14,-0.19,1.54,-0.12,0.02,0.12,
0.019,0.43,-0.20,1.70,-0.12,0.02,0.12,
0.019,0.43,-0.20,1.70,-0.09,0.04,0.11,
0.021,0.43,-0.20,1.70,-0.05,0.07,0.10,
0.023,0.43,-0.20,1.70,-0.03,0.08,0.10,
0.024,0.43,-0.20,1.70,-0.01,0.10,0.09,
0.026,0.43,-0.20,1.70,0.01,0.11,0.08,
0.041,0.60,-0.24,1.43,0.01,0.11,0.08,
0.041,0.60,-0.24,1.43,0.03,0.13,0.07,
0.041,0.60,-0.24,1.43,0.06,0.17,0.06,
0.041,0.60,-0.24,1.43,0.07,0.18,0.06,
0.041,0.60,-0.24,1.43,0.08,0.19,0.05,
0.042,0.60,-0.24,1.43,0.10,0.21,0.05,
0.042,0.45,-0.22,1.00,0.10,0.21,0.05,
0.042,0.45,-0.22,1.00,0.11,0.23,0.05,
0.042,0.45,-0.22,1.00,0.12,0.25,0.05,
0.042,0.45,-0.22,1.00,0.13,0.25,0.05,
0.044,0.45,-0.22,1.00,0.14,0.26,0.05,
0.05,0.45,-0.22,1.00,0.15,0.26,0.05,
0.05,0.21,-0.20,0.51,0.15,0.26,0.05,
0.051,0.21,-0.20,0.51,0.15,0.26,0.05,
0.051,0.21,-0.20,0.51,0.16,0.25,0.06,
0.053,0.21,-0.20,0.51,0.16,0.25,0.06,
0.062,0.21,-0.20,0.51,0.16,0.24,0.07,
0.075,0.21,-0.20,0.51,0.17,0.22,0.08,
0.075,-0.15,-0.17,0.03,0.17,0.22,0.08,
0.076,-0.15,-0.17,0.03,0.17,0.20,0.08,
0.076,-0.15,-0.17,0.03,0.17,0.16,0.09,
0.076,-0.15,-0.17,0.03,0.17,0.15,0.10,
0.076,-0.15,-0.17,0.03,0.17,0.12,0.10,
0.076,-0.15,-0.17,0.03,0.17,0.09,0.11,
0.076,-0.33,-0.08,-0.27,0.17,0.09,0.11,
0.077,-0.33,-0.08,-0.27,0.17,0.06,0.12,
0.077,-0.33,-0.08,-0.27,0.17,0.01,0.13,
0.077,-0.33,-0.08,-0.27,0.17,-0.00,0.13,
0.077,-0.33,-0.08,-0.27,0.17,-0.03,0.14,
0.077,-0.33,-0.08,-0.27,0.16,-0.06,0.14,
0.087,-0.26,-0.02,-0.45,0.16,-0.06,0.14,
0.089,-0.26,-0.02,-0.45,0.16,-0.08,0.14,
0.09,-0.26,-0.02,-0.45,0.15,-0.11,0.15,
0.09,-0.26,-0.02,-0.45,0.14,-0.12,0.15,
0.091,-0.26,-0.02,-0.45,0.14,-0.14,0.15,
0.091,-0.26,-0.02,-0.45,0.13,-0.15,0.16,
0.092,-0.11,-0.02,-0.65,0.13,-0.15,0.16,
0.093,-0.11,-0.02,-0.65,0.12,-0.16,0.16,
0.093,-0.11,-0.02,-0.65,0.10,-0.17,0.16,
0.094,-0.11,-0.02,-0.65,0.10,-0.18,0.16,
0.102,-0.11,-0.02,-0.65,0.08,-0.18,0.16,
0.103,-0.11,-0.02,-0.65,0.07,-0.19,0.16,
0.103,0.05,-0.07,-0.72,0.07,-0.19,0.16,
0.104,0.05,-0.07,-0.72,0.06,-0.19,0.16,
0.104,0.05,-0.07,-0.72,0.05,-0.19,0.16,
0.104,0.05,-0.07,-0.72,0.04,-0.19,0.16,
0.105,0.05,-0.07,-0.72,0.03,-0.20,0.17,
0.107,0.05,-0.07,-0.72,0.02,-0.20,0.17,
0.109,0.05,-0.07,-0.64,0.02,-0.20,0.17,
0.11,0.05,-0.07,-0.64,0.01,-0.20,0.17,
0.113,0.05,-0.07,-0.64,0.00,-0.20,0.17,
0.115,0.05,-0.07,-0.64,0.00,-0.20,0.17,
0.115,0.05,-0.07,-0.64,-0.01,-0.19,0.17,
0.116,0.05,-0.07,-0.64,-0.01,-0.19,0.17,
0.119,0.05,-0.05,-0.44,-0.01,-0.19,0.17,
0.119,0.05,-0.05,-0.44,-0.01,-0.18,0.17,
0.122,0.05,-0.05,-0.44,-0.02,-0.17,0.17,
0.123,0.05,-0.05,-0.44,-0.02,-0.17,0.17,
0.126,0.05,-0.05,-0.44,-0.03,-0.16,0.17,
0.127,0.05,-0.05,-0.44,-0.03,-0.15,0.17,
0.131,0.15,-0.06,-0.25,-0.03,-0.15,0.17,
0.132,0.15,-0.06,-0.25,-0.03,-0.15,0.17,
0.133,0.15,-0.06,-0.25,-0.04,-0.13,0.17,
0.134,0.15,-0.06,-0.25,-0.04,-0.13,0.17,
0.134,0.15,-0.06,-0.25,-0.04,-0.12,0.16,
0.136,0.15,-0.06,-0.25,-0.05,-0.10,0.16,
0.163,0.25,-0.06,-0.18,-0.05,-0.10,0.16,
0.163,0.25,-0.06,-0.18,-0.05,-0.09,0.16,
0.164,0.25,-0.06,-0.18,-0.06,-0.08,0.15,
0.164,0.25,-0.06,-0.18,-0.06,-0.07,0.15,
0.165,0.25,-0.06,-0.18,-0.06,-0.06,0.14,
0.165,0.25,-0.06,-0.18,-0.07,-0.05,0.14,
0.166,0.33,-0.02,-0.11,-0.07,-0.05,0.14,
0.166,0.33,-0.02,-0.11,-0.07,-0.04,0.14,
0.166,0.33,-0.02,-0.11,-0.07,-0.04,0.13,
0.167,0.33,-0.02,-0.11,-0.07,-0.03,0.13,
0.167,0.33,-0.02,-0.11,-0.07,-0.03,0.12,
0.167,0.33,-0.02,-0.11,-0.07,-0.02,0.12,
0.168,0.36,-0.05,-0.09,-0.07,-0.02,0.12,
0.168,0.36,-0.05,-0.09,-0.08,-0.02,0.12,
0.168,0.36,-0.05,-0.09,-0.08,-0.02,0.11,
0.168,0.36,-0.05,-0.09,-0.08,-0.02,0.11,
0.169,0.36,-0.05,-0.09,-0.08,-0.02,0.11,
0.169,0.36,-0.05,-0.09,-0.08,-0.01,0.11,
0.169,0.28,-0.05,-0.10,-0.08,-0.01,0.11,
0.169,0.28,-0.05,-0.10,-0.09,-0.01,0.10,
0.173,0.28,-0.05,-0.10,-0.09,-0.01,0.10,
0.174,0.28,-0.05,-0.10,-0.09,-0.01,0.10,
0.176,0.28,-0.05,-0.10,-0.08,-0.02,0.10,
0.178,0.28,-0.05,-0.10,-0.08,-0.02,0.09,
0.179,0.18,0.01,-0.04,-0.08,-0.02,0.09,
0.179,0.18,0.01,-0.04,-0.08,-0.02,0.09,
0.182,0.18,0.01,-0.04,-0.08,-0.03,0.09,
0.183,0.18,0.01,-0.04,-0.07,-0.03,0.09,
0.185,0.18,0.01,-0.04,-0.07,-0.03,0.09,
0.187,0.18,0.01,-0.04,-0.07,-0.03,0.09,
0.188,0.12,-0.01,0.07,-0.07,-0.03,0.09,
0.189,0.12,-0.01,0.07,-0.06,-0.03,0.10,
0.192,0.12,-0.01,0.07,-0.05,-0.04,0.10,
0.193,0.12,-0.01,0.07,-0.05,-0.04,0.10,
0.199,0.12,-0.01,0.07,-0.05,-0.04,0.10,
0.2,0.12,-0.01,0.07,-0.04,-0.04,0.11,
0.2,0.07,-0.07,0.07,-0.04,-0.04,0.11,
0.201,0.07,-0.07,0.07,-0.04,-0.04,0.11,
0.203,0.07,-0.07,0.07,-0.03,-0.05,0.11,
0.204,0.07,-0.07,0.07,-0.03,-0.05,0.11,
0.209,0.07,-0.07,0.07,-0.03,-0.05,0.12,
0.209,0.07,-0.07,0.07,-0.02,-0.05,0.12,
0.212,0.05,-0.08,-0.08,-0.02,-0.05,0.12,
0.213,0.05,-0.08,-0.08,-0.02,-0.05,0.12,
0.213,0.05,-0.08,-0.08,-0.02,-0.06,0.12,
0.213,0.05,-0.08,-0.08,-0.02,-0.06,0.12,
0.221,0.05,-0.08,-0.08,-0.02,-0.07,0.12,
0.221,0.05,-0.08,-0.08,-0.03,-0.07,0.13,
0.222,0.06,-0.06,-0.25,-0.03,-0.07,0.13,
0.222,0.06,-0.06,-0.25,-0.03,-0.07,0.13,
0.222,0.06,-0.06,-0.25,-0.04,-0.08,0.13,
0.222,0.06,-0.06,-0.25,-0.04,-0.08,0.13,
0.225,0.06,-0.06,-0.25,-0.04,-0.09,0.13,
0.228,0.06,-0.06,-0.25,-0.05,-0.10,0.13,
0.229,0.04,0.02,-0.33,-0.05,-0.10,0.13,
0.229,0.04,0.02,-0.33,-0.05,-0.10,0.13,
0.233,0.04,0.02,-0.33,-0.06,-0.11,0.13,
0.235,0.04,0.02,-0.33,-0.06,-0.11,0.12,
0.236,0.04,0.02,-0.33,-0.06,-0.11,0.12,
0.237,0.04,0.02,-0.33,-0.06,-0.11,0.12,
0.238,0.11,0.05,-0.17,-0.06,-0.11,0.12,
0.238,0.11,0.05,-0.17,-0.06,-0.12,0.12,
0.242,0.11,0.05,-0.17,-0.06,-0.12,0.11,
0.243,0.11,0.05,-0.17,-0.05,-0.12,0.11,
0.248,0.11,0.05,-0.17,-0.05,-0.12,0.10,
0.25,0.11,0.05,-0.17,-0.05,-0.13,0.09,
0.25,0.35,0.02,-0.02,-0.05,-0.13,0.09,
0.251,0.35,0.02,-0.02,-0.05,-0.13,0.09,
0.252,0.35,0.02,-0.02,-0.05,-0.13,0.08,
0.254,0.35,0.02,-0.02,-0.05,-0.13,0.07,
0.255,0.35,0.02,-0.02,-0.05,-0.12,0.07,
0.257,0.35,0.02,-0.02,-0.06,-0.12,0.06,
0.259,0.38,-0.03,-0.09,-0.06,-0.12,0.06,
0.26,0.38,-0.03,-0.09,-0.06,-0.12,0.06,
0.265,0.38,-0.03,-0.09,-0.06,-0.11,0.05,
0.266,0.38,-0.03,-0.09,-0.06,-0.11,0.05,
0.266,0.38,-0.03,-0.09,-0.07,-0.10,0.04,
0.267,0.38,-0.03,-0.09,-0.07,-0.10,0.04,
0.268,0.31,-0.03,-0.06,-0.07,-0.10,0.04,
0.269,0.31,-0.03,-0.06,-0.07,-0.10,0.03,
0.271,0.31,-0.03,-0.06,-0.07,-0.10,0.03,
0.272,0.31,-0.03,-0.06,-0.07,-0.10,0.03,
0.275,0.31,-0.03,-0.06,-0.07,-0.09,0.03,
0.279,0.31,-0.03,-0.06,-0.06,-0.09,0.03,
0.28,0.18,-0.04,0.09,-0.06,-0.09,0.03,
0.28,0.18,-0.04,0.09,-0.06,-0.08,0.03,
0.281,0.18,-0.04,0.09,-0.06,-0.08,0.03,
0.282,0.18,-0.04,0.09,-0.06,-0.07,0.03,
0.284,0.18,-0.04,0.09,-0.05,-0.07,0.04,
0.286,0.18,-0.04,0.09,-0.05,-0.07,0.04,
0.289,0.07,-0.12,0.14,-0.05,-0.07,0.04,
0.289,0.07,-0.12,0.14,-0.05,-0.07,0.04,
0.292,0.07,-0.12,0.14,-0.05,-0.06,0.04,
0.293,0.07,-0.12,0.14,-0.05,-0.06,0.05,
0.308,0.07,-0.12,0.14,-0.04,-0.05,0.05,
0.309,0.07,-0.12,0.14,-0.05,-0.05,0.05,
0.309,-0.01,-0.16,0.08,-0.05,-0.05,0.05,
0.309,-0.01,-0.16,0.08,-0.05,-0.05,0.06,
0.31,-0.01,-0.16,0.08,-0.05,-0.05,0.06,
0.31,-0.01,-0.16,0.08,-0.05,-0.05,0.06,
0.337,-0.01,-0.16,0.08,-0.04,-0.05,0.07,
0.337,-0.01,-0.16,0.08,-0.04,-0.06,0.07,
0.338,-0.06,-0.12,0.08,-0.04,-0.06,0.07,
0.338,-0.06,-0.12,0.08,-0.04,-0.06,0.07,
0.339,-0.06,-0.12,0.08,-0.04,-0.06,0.08,
0.339,-0.06,-0.12,0.08,-0.04,-0.06,0.08,
0.34,-0.06,-0.12,0.08,-0.04,-0.06,0.08,
0.34,-0.06,-0.12,0.08,-0.04,-0.07,0.08,
0.341,-0.04,-0.12,0.01,-0.04,-0.07,0.08,
0.341,-0.04,-0.12,0.01,-0.04,-0.07,0.09,
0.341,-0.04,-0.12,0.01,-0.05,-0.07,0.09,
0.342,-0.04,-0.12,0.01,-0.05,-0.07,0.09,
0.342,-0.04,-0.12,0.01,-0.05,-0.07,0.10,
0.343,-0.04,-0.12,0.01,-0.06,-0.07,0.10,
0.343,-0.06,-0.16,-0.09,-0.06,-0.07,0.10,
0.344,-0.06,-0.16,-0.09,-0.06,-0.08,0.10,
0.344,-0.06,-0.16,-0.09,-0.07,-0.08,0.11,
0.344,-0.06,-0.16,-0.09,-0.07,-0.08,0.11,
0.345,-0.06,-0.16,-0.09,-0.07,-0.09,0.11,
0.345,-0.06,-0.16,-0.09,-0.08,-0.09,0.11,
0.345,-0.00,-0.14,-0.16,-0.08,-0.09,0.11,
0.346,-0.00,-0.14,-0.16,-0.08,-0.09,0.11,
0.346,-0.00,-0.14,-0.16,-0.09,-0.10,0.11,
0.347,-0.00,-0.14,-0.16,-0.09,-0.10,0.11,
0.347,-0.00,-0.14,-0.16,-0.09,-0.11,0.11,
0.347,-0.00,-0.14,-0.16,-0.10,-0.11,0.11,
0.355,0.09,-0.07,-0.15,-0.10,-0.11,0.11,
0.356,0.09,-0.07,-0.15,-0.10,-0.12,0.10,
0.356,0.09,-0.07,-0.15,-0.11,-0.12,0.10,
0.356,0.09,-0.07,-0.15,-0.11,-0.13,0.10,
0.356,0.09,-0.07,-0.15,-0.11,-0.13,0.10,
0.357,0.09,-0.07,-0.15,-0.12,-0.13,0.10,
0.358,0.13,-0.05,-0.16,-0.12,-0.13,0.10,
0.359,0.13,-0.05,-0.16,-0.13,-0.13,0.09,
0.361,0.13,-0.05,-0.16,-0.13,-0.13,0.09,
0.363,0.13,-0.05,-0.16,-0.13,-0.14,0.09,
0.366,0.13,-0.05,-0.16,-0.14,-0.14,0.09,
0.366,0.13,-0.05,-0.16,-0.14,-0.13,0.09,
0.369,0.17,-0.06,-0.09,-0.14,-0.13,0.09,
0.369,0.17,-0.06,-0.09,-0.14,-0.13,0.08,
0.373,0.17,-0.06,-0.09,-0.15,-0.13,0.08,
0.375,0.17,-0.06,-0.09,-0.15,-0.12,0.08,
0.376,0.17,-0.06,-0.09,-0.14,-0.12,0.08,
0.386,0.17,-0.06,-0.09,-0.14,-0.12,0.08,
0.387,0.17,-0.06,0.10,-0.14,-0.12,0.08,
0.389,0.17,-0.06,0.10,-0.14,-0.11,0.08,
0.392,0.17,-0.06,0.10,-0.14,-0.11,0.08,
0.393,0.17,-0.06,0.10,-0.13,-0.11,0.08,
0.393,0.17,-0.06,0.10,-0.13,-0.10,0.08,
0.393,0.17,-0.06,0.10,-0.12,-0.10,0.08,
0.393,0.13,-0.06,0.27,-0.12,-0.10,0.08,
0.393,0.13,-0.06,0.27,-0.11,-0.10,0.08,
0.393,0.13,-0.06,0.27,-0.10,-0.09,0.08,
0.395,0.13,-0.06,0.27,-0.09,-0.09,0.08,
0.395,0.13,-0.06,0.27,-0.09,-0.09,0.08,
0.396,0.13,-0.06,0.27,-0.08,-0.09,0.08,
0.399,0.02,-0.11,0.32,-0.08,-0.09,0.08,
0.404,0.02,-0.11,0.32,-0.07,-0.09,0.09,
0.405,0.02,-0.11,0.32,-0.06,-0.09,0.10,
0.405,0.02,-0.11,0.32,-0.05,-0.09,0.10,
0.405,0.02,-0.11,0.32,-0.04,-0.09,0.10,
0.406,0.02,-0.11,0.32,-0.03,-0.09,0.10,
0.408,-0.06,-0.09,0.32,-0.03,-0.09,0.10,
0.409,-0.06,-0.09,0.32,-0.02,-0.09,0.10,
0.411,-0.06,-0.09,0.32,-0.01,-0.10,0.11,
0.412,-0.06,-0.09,0.32,-0.01,-0.10,0.11,
0.414,-0.06,-0.09,0.32,-0.00,-0.11,0.12,
0.417,-0.06,-0.09,0.32,0.01,-0.11,0.12,
0.419,-0.12,-0.05,0.24,0.01,-0.11,0.12,
0.42,-0.12,-0.05,0.24,0.02,-0.12,0.13,
0.422,-0.12,-0.05,0.24,0.03,-0.13,0.13,
0.423,-0.12,-0.05,0.24,0.03,-0.13,0.14,
0.425,-0.12,-0.05,0.24,0.04,-0.14,0.14,
0.438,-0.12,-0.05,0.24,0.04,-0.15,0.14,
0.44,-0.14,-0.02,0.10,0.04,-0.15,0.14,
0.441,-0.14,-0.02,0.10,0.04,-0.16,0.14,
0.441,-0.14,-0.02,0.10,0.04,-0.17,0.14,
0.442,-0.14,-0.02,0.10,0.04,-0.17,0.14,
0.443,-0.14,-0.02,0.10,0.04,-0.18,0.14,
0.444,-0.14,-0.02,0.10,0.04,-0.19,0.13,
0.445,0.03,0.06,-0.06,0.04,-0.19,0.13,
0.445,0.03,0.06,-0.06,0.04,-0.19,0.13,
0.448,0.03,0.06,-0.06,0.03,-0.20,0.13,
0.449,0.03,0.06,-0.06,0.03,-0.20,0.12,
0.462,0.03,0.06,-0.06,0.02,-0.20,0.12,
0.463,0.03,0.06,-0.06,0.02,-0.20,0.11,
0.464,0.22,0.11,-0.14,0.02,-0.20,0.11,
0.464,0.22,0.11,-0.14,0.01,-0.20,0.11,
0.464,0.22,0.11,-0.14,0.00,-0.20,0.10,
0.465,0.22,0.11,-0.14,0.00,-0.19,0.10,
0.465,0.34,0.11,-0.12,0.00,-0.19,0.10,
0.466,0.34,0.11,-0.12,-0.02,-0.18,0.07,
0.466,0.34,0.11,-0.12,-0.02,-0.18,0.07,
0.466,0.34,0.11,-0.12,-0.02,-0.18,0.07,
0.467,0.34,0.11,-0.12,-0.03,-0.17,0.06,
0.467,0.34,0.11,-0.12,-0.03,-0.16,0.06,
0.467,0.34,0.11,-0.12,-0.04,-0.15,0.05,
0.468,0.34,0.11,-0.12,-0.04,-0.15,0.05,
0.469,0.36,0.10,-0.03,-0.04,-0.15,0.05,
0.469,0.36,0.10,-0.03,-0.04,-0.14,0.05,
0.505,0.36,0.10,-0.03,-0.04,-0.13,0.04,
0.506,0.36,0.10,-0.03,-0.05,-0.12,0.03,
0.506,0.36,0.10,-0.03,-0.05,-0.12,0.03,
0.506,0.36,0.10,-0.03,-0.05,-0.11,0.03,
0.507,0.24,0.09,0.12,-0.05,-0.11,0.03,
0.507,0.24,0.09,0.12,-0.04,-0.10,0.03,
0.508,0.24,0.09,0.12,-0.04,-0.10,0.02,
0.508,0.24,0.09,0.12,-0.04,-0.09,0.02,
0.508,0.24,0.09,0.12,-0.03,-0.09,0.02,
0.509,0.24,0.09,0.12,-0.03,-0.09,0.02,
0.509,0.06,0.08,0.20,-0.03,-0.09,0.02,
0.509,0.06,0.08,0.20,-0.03,-0.09,0.02,
0.51,0.06,0.08,0.20,-0.02,-0.08,0.02,
0.51,0.06,0.08,0.20,-0.02,-0.08,0.03,
0.51,0.06,0.08,0.20,-0.02,-0.08,0.03,
0.511,0.06,0.08,0.20,-0.01,-0.08,0.03,
0.511,-0.03,0.07,0.16,-0.01,-0.08,0.03,
0.511,-0.03,0.07,0.16,-0.01,-0.08,0.03,
0.512,-0.03,0.07,0.16,-0.01,-0.08,0.03,
0.512,-0.03,0.07,0.16,-0.01,-0.08,0.03,
0.512,-0.03,0.07,0.16,-0.01,-0.08,0.03,
0.513,-0.03,0.07,0.16,-0.01,-0.09,0.03,
0.513,0.04,0.07,0.05,-0.01,-0.09,0.03,
0.514,0.04,0.07,0.05,-0.01,-0.09,0.03,
0.514,0.04,0.07,0.05,-0.01,-0.10,0.02,
0.514,0.04,0.07,0.05,-0.01,-0.10,0.02,
0.515,0.04,0.07,0.05,-0.01,-0.10,0.02,
0.519,0.04,0.07,0.05,-0.01,-0.11,0.02,
0.52,0.15,0.11,-0.01,-0.01,-0.11,0.02,
0.52,0.15,0.11,-0.01,-0.01,-0.11,0.02,
0.527,0.15,0.11,-0.01,-0.01,-0.12,0.01,
0.53,0.15,0.11,-0.01,-0.01,-0.12,0.01,
0.532,0.15,0.11,-0.01,-0.01,-0.13,0.00,
0.533,0.15,0.11,-0.01,-0.00,-0.13,-0.00,
0.533,0.19,0.13,0.05,-0.00,-0.13,-0.00,
0.533,0.19,0.13,0.05,-0.00,-0.14,-0.00,
0.534,0.19,0.13,0.05,0.00,-0.14,-0.01,
0.534,0.19,0.13,0.05,0.00,-0.14,-0.01,
0.534,0.19,0.13,0.05,0.01,-0.15,-0.02,
0.537,0.19,0.13,0.05,0.01,-0.15,-0.02,
0.541,0.18,0.11,0.12,0.01,-0.15,-0.02,
0.541,0.18,0.11,0.12,0.02,-0.15,-0.02,
0.542,0.18,0.11,0.12,0.02,-0.14,-0.03,
0.546,0.18,0.11,0.12,0.02,-0.14,-0.03,
0.547,0.18,0.11,0.12,0.02,-0.14,-0.03,
0.548,0.18,0.11,0.12,0.03,-0.14,-0.03,
0.548,0.13,0.08,0.11,0.03,-0.14,-0.03,
0.551,0.13,0.08,0.11,0.03,-0.14,-0.04,
0.552,0.13,0.08,0.11,0.03,-0.14,-0.04,
0.554,0.13,0.08,0.11,0.03,-0.14,-0.04,
0.555,0.13,0.08,0.11,0.03,-0.14,-0.04,
0.557,0.13,0.08,0.11,0.03,-0.14,-0.04,
0.562,0.04,0.06,0.04,0.03,-0.14,-0.04,
0.566,0.04,0.06,0.04,0.03,-0.14,-0.04,
0.567,0.04,0.06,0.04,0.03,-0.15,-0.04,
0.568,0.04,0.06,0.04,0.03,-0.15,-0.04,
0.568,0.04,0.06,0.04,0.03,-0.15,-0.04,
0.568,0.04,0.06,0.04,0.03,-0.15,-0.04,
0.569,-0.00,0.06,-0.10,0.03,-0.15,-0.04,
0.569,-0.00,0.06,-0.10,0.03,-0.15,-0.04,
0.572,-0.00,0.06,-0.10,0.03,-0.15,-0.04,
0.577,-0.00,0.06,-0.10,0.02,-0.15,-0.04,
0.578,-0.00,0.06,-0.10,0.02,-0.15,-0.04,
0.578,-0.00,0.06,-0.10,0.01,-0.15,-0.04,
0.579,-0.06,0.05,-0.21,0.01,-0.15,-0.04,
0.579,-0.06,0.05,-0.21,0.01,-0.15,-0.04,
0.584,-0.06,0.05,-0.21,-0.00,-0.15,-0.04,
0.586,-0.06,0.05,-0.21,-0.00,-0.15,-0.04,
0.587,-0.06,0.05,-0.21,-0.01,-0.15,-0.04,
0.587,-0.06,0.05,-0.21,-0.02,-0.15,-0.04,
0.589,-0.09,0.06,-0.32,-0.02,-0.15,-0.04,
0.59,-0.09,0.06,-0.32,-0.02,-0.14,-0.04,
0.593,-0.09,0.06,-0.32,-0.04,-0.14,-0.04,
0.61,-0.09,0.06,-0.32,-0.04,-0.14,-0.04,
0.615,-0.09,0.06,-0.32,-0.04,-0.13,-0.04,
0.616,-0.09,0.06,-0.32,-0.05,-0.13,-0.04,
0.616,-0.08,0.03,-0.32,-0.05,-0.13,-0.04,
0.617,-0.08,0.03,-0.32,-0.06,-0.12,-0.04,
0.617,-0.08,0.03,-0.32,-0.06,-0.11,-0.04,
0.618,-0.08,0.03,-0.32,-0.07,-0.11,-0.03,
0.618,-0.08,0.03,-0.32,-0.07,-0.10,-0.03,
0.619,-0.08,0.03,-0.32,-0.07,-0.09,-0.03,
0.62,-0.12,-0.04,-0.26,-0.07,-0.09,-0.03,
0.62,-0.12,-0.04,-0.26,-0.08,-0.08,-0.03,
0.621,-0.12,-0.04,-0.26,-0.09,-0.07,-0.02,
0.621,-0.12,-0.04,-0.26,-0.09,-0.07,-0.02,
0.621,-0.12,-0.04,-0.26,-0.09,-0.07,-0.02,
0.622,-0.12,-0.04,-0.26,-0.09,-0.07,-0.02,
0.623,-0.15,-0.05,-0.18,-0.09,-0.07,-0.02,
0.623,-0.15,-0.05,-0.18,-0.09,-0.07,-0.01,
0.623,-0.15,-0.05,-0.18,-0.09,-0.07,-0.01,
0.624,-0.15,-0.05,-0.18,-0.09,-0.07,-0.01,
0.625,-0.15,-0.05,-0.18,-0.08,-0.07,0.00,
0.631,-0.15,-0.05,-0.18,-0.08,-0.07,0.01,
0.633,-0.35,-0.04,0.02,-0.08,-0.07,0.01,
0.633,-0.35,-0.04,0.02,-0.07,-0.07,0.01,
0.634,-0.35,-0.04,0.02,-0.07,-0.07,0.02,
0.634,-0.35,-0.04,0.02,-0.06,-0.08,0.02,
0.634,-0.35,-0.04,0.02,-0.06,-0.08,0.02,
0.637,-0.35,-0.04,0.02,-0.05,-0.08,0.02,
0.667,-0.23,-0.03,0.04,-0.05,-0.08,0.02,
0.667,-0.23,-0.03,0.04,-0.05,-0.09,0.03,
0.668,-0.23,-0.03,0.04,-0.04,-0.09,0.03,
0.668,-0.23,-0.03,0.04,-0.04,-0.10,0.03,
0.669,-0.23,-0.03,0.04,-0.03,-0.10,0.02,
0.669,-0.23,-0.03,0.04,-0.03,-0.11,0.02,
0.67,-0.06,-0.05,0.06,-0.03,-0.11,0.02,
0.67,-0.06,-0.05,0.06,-0.02,-0.11,0.02,
0.67,-0.06,-0.05,0.06,-0.02,-0.12,0.02,
0.671,-0.06,-0.05,0.06,-0.02,-0.13,0.02,
0.671,-0.06,-0.05,0.06,-0.01,-0.13,0.02,
0.672,-0.06,-0.05,0.06,-0.01,-0.14,0.02,
0.672,-0.03,-0.05,-0.03,-0.01,-0.14,0.02,
0.672,-0.03,-0.05,-0.03,-0.01,-0.15,0.01,
0.673,-0.03,-0.05,-0.03,-0.01,-0.16,0.01,
0.673,-0.03,-0.05,-0.03,-0.01,-0.17,0.00,
0.674,-0.03,-0.05,-0.03,-0.01,-0.17,0.00,
0.674,-0.03,-0.05,-0.03,-0.01,-0.18,-0.00,
0.675,-0.07,0.00,-0.13,-0.01,-0.18,-0.00,
0.675,-0.07,0.00,-0.13,-0.01,-0.19,-0.00,
0.675,-0.07,0.00,-0.13,-0.02,-0.20,-0.01,
0.676,-0.07,0.00,-0.13,-0.02,-0.20,-0.01,
0.676,-0.07,0.00,-0.13,-0.02,-0.20,-0.01,
0.677,-0.07,0.00,-0.13,-0.03,-0.20,-0.01,
0.682,-0.11,0.00,-0.17,-0.03,-0.20,-0.01,
0.683,-0.11,0.00,-0.17,-0.03,-0.21,-0.01,
0.683,-0.11,0.00,-0.17,-0.04,-0.20,-0.02,
0.684,-0.11,0.00,-0.17,-0.04,-0.20,-0.02,
0.687,-0.11,0.00,-0.17,-0.05,-0.20,-0.02,
0.687,-0.11,0.00,-0.17,-0.05,-0.19,-0.02,
0.691,-0.05,-0.01,-0.15,-0.05,-0.19,-0.02,
0.691,-0.05,-0.01,-0.15,-0.06,-0.19,-0.03,
0.692,-0.05,-0.01,-0.15,-0.07,-0.18,-0.03,
0.695,-0.05,-0.01,-0.15,-0.07,-0.17,-0.03,
0.695,-0.05,-0.01,-0.15,-0.07,-0.17,-0.03,
0.701,-0.05,-0.01,-0.15,-0.07,-0.16,-0.03,
0.702,-0.02,-0.08,-0.13,-0.07,-0.16,-0.03,
0.702,-0.02,-0.08,-0.13,-0.08,-0.15,-0.04,
0.703,-0.02,-0.08,-0.13,-0.08,-0.13,-0.04,
0.703,-0.02,-0.08,-0.13,-0.08,-0.12,-0.04,
0.706,-0.02,-0.08,-0.13,-0.09,-0.11,-0.04,
0.707,-0.02,-0.08,-0.13,-0.09,-0.10,-0.04,
0.71,-0.03,-0.15,-0.05,-0.09,-0.10,-0.04,
0.72,-0.03,-0.15,-0.05,-0.09,-0.10,-0.04,
0.72,-0.03,-0.15,-0.05,-0.09,-0.09,-0.03,
0.721,-0.03,-0.15,-0.05,-0.09,-0.08,-0.03,
0.721,-0.03,-0.15,-0.05,-0.09,-0.08,-0.03,
0.721,-0.03,-0.15,-0.05,-0.08,-0.07,-0.03,
0.722,-0.11,-0.16,0.07,-0.08,-0.07,-0.03,
0.722,-0.11,-0.16,0.07,-0.08,-0.07,-0.03,
0.722,-0.11,-0.16,0.07,-0.07,-0.07,-0.03,
0.723,-0.11,-0.16,0.07,-0.07,-0.07,-0.03,
0.736,-0.11,-0.16,0.07,-0.07,-0.07,-0.02,
0.739,-0.11,-0.16,0.07,-0.06,-0.07,-0.02,
0.74,-0.21,-0.14,0.18,-0.06,-0.07,-0.02,
0.741,-0.21,-0.14,0.18,-0.05,-0.07,-0.02,
0.742,-0.21,-0.14,0.18,-0.04,-0.06,-0.02,
0.745,-0.21,-0.14,0.18,-0.04,-0.06,-0.02,
0.745,-0.21,-0.14,0.18,-0.03,-0.06,-0.01,
0.745,-0.21,-0.14,0.18,-0.03,-0.05,-0.01,
0.746,-0.25,-0.11,0.19,-0.03,-0.05,-0.01,
0.746,-0.25,-0.11,0.19,-0.02,-0.05,-0.01,
0.746,-0.25,-0.11,0.19,-0.01,-0.05,-0.00,
0.747,-0.25,-0.11,0.19,-0.01,-0.05,-0.00,
0.747,-0.25,-0.11,0.19,-0.00,-0.06,-0.00,
0.747,-0.25,-0.11,0.19,0.00,-0.06,-0.00,
0.758,-0.21,-0.10,0.18,0.00,-0.06,-0.00,
0.759,-0.21,-0.10,0.18,0.01,-0.06,0.00,
0.76,-0.21,-0.10,0.18,0.02,-0.06,0.00,
0.76,-0.21,-0.10,0.18,0.02,-0.06,0.00,
0.76,-0.21,-0.10,0.18,0.03,-0.07,0.00,
0.76,-0.21,-0.10,0.18,0.03,-0.07,0.00,
0.761,-0.18,-0.09,0.17,0.03,-0.07,0.00,
0.761,-0.18,-0.09,0.17,0.04,-0.07,0.01,
0.761,-0.18,-0.09,0.17,0.05,-0.08,0.01,
0.763,-0.18,-0.09,0.17,0.05,-0.09,0.01,
0.765,-0.18,-0.09,0.17,0.06,-0.09,0.02,
0.767,-0.18,-0.09,0.17,0.06,-0.09,0.02,
0.769,-0.29,-0.13,0.11,0.06,-0.09,0.02,
0.769,-0.29,-0.13,0.11,0.07,-0.09,0.02,
0.771,-0.29,-0.13,0.11,0.07,-0.10,0.02,
0.773,-0.29,-0.13,0.11,0.07,-0.09,0.03,
0.778,-0.29,-0.13,0.11,0.07,-0.10,0.03,
0.783,-0.29,-0.13,0.11,0.08,-0.09,0.03,
0.784,-0.31,-0.13,0.01,0.08,-0.09,0.03,
0.784,-0.31,-0.13,0.01,0.08,-0.09,0.04,
0.785,-0.31,-0.13,0.01,0.08,-0.09,0.04,
0.785,-0.31,-0.13,0.01,0.08,-0.09,0.04,
0.786,-0.31,-0.13,0.01,0.08,-0.08,0.04,
0.789,-0.31,-0.13,0.01,0.08,-0.08,0.04,
0.789,-0.25,-0.12,-0.09,0.08,-0.08,0.04,
0.789,-0.25,-0.12,-0.09,0.08,-0.07,0.04,
0.794,-0.25,-0.12,-0.09,0.07,-0.07,0.04,
0.796,-0.25,-0.12,-0.09,0.07,-0.06,0.04,
0.797,-0.25,-0.12,-0.09,0.07,-0.05,0.04,
0.797,-0.25,-0.12,-0.09,0.07,-0.04,0.04,
0.799,-0.13,-0.08,-0.16,0.07,-0.04,0.04,
0.8,-0.13,-0.08,-0.16,0.06,-0.03,0.03,
0.802,-0.13,-0.08,-0.16,0.06,-0.01,0.03,
0.803,-0.13,-0.08,-0.16,0.05,-0.00,0.03,
0.835,-0.13,-0.08,-0.16,0.05,0.01,0.03,
0.836,-0.13,-0.08,-0.16,0.05,0.01,0.03,
0.836,-0.03,-0.06,-0.22,0.05,0.01,0.03,
0.837,-0.03,-0.06,-0.22,0.05,0.02,0.02,
0.837,-0.03,-0.06,-0.22,0.04,0.02,0.02,
0.837,-0.03,-0.06,-0.22,0.04,0.02,0.02,
0.838,-0.03,-0.06,-0.22,0.04,0.03,0.02,
0.838,-0.03,-0.06,-0.22,0.03,0.03,0.01,
0.839,0.05,-0.03,-0.24,0.03,0.03,0.01,
0.839,0.05,-0.03,-0.24,0.03,0.03,0.00,
0.839,0.05,-0.03,-0.24,0.03,0.03,-0.00,
0.839,0.05,-0.03,-0.24,0.03,0.03,-0.01,
0.84,0.05,-0.03,-0.24,0.02,0.03,-0.01,
0.84,0.05,-0.03,-0.24,0.02,0.03,-0.02,
0.84,0.08,-0.01,-0.32,0.02,0.03,-0.02,
0.84,0.08,-0.01,-0.32,0.02,0.03,-0.02,
0.841,0.08,-0.01,-0.32,0.01,0.02,-0.03,
0.841,0.08,-0.01,-0.32,0.01,0.02,-0.03,
0.841,0.08,-0.01,-0.32,0.01,0.02,-0.03,
0.841,0.08,-0.01,-0.32,0.01,0.02,-0.04,
0.842,-0.00,-0.04,-0.43,0.01,0.02,-0.04,
0.842,-0.00,-0.04,-0.43,0.00,0.01,-0.04,
0.842,-0.00,-0.04,-0.43,-0.01,0.00,-0.04,
0.843,-0.00,-0.04,-0.43,-0.01,0.00,-0.04,
0.845,-0.00,-0.04,-0.43,-0.01,-0.00,-0.04,
0.847,-0.00,-0.04,-0.43,-0.02,-0.01,-0.05,
0.848,-0.15,-0.05,-0.53,-0.02,-0.01,-0.05,
0.849,-0.15,-0.05,-0.53,-0.03,-0.01,-0.05,
0.851,-0.15,-0.05,-0.53,-0.03,-0.02,-0.05,
0.852,-0.15,-0.05,-0.53,-0.04,-0.03,-0.05,
0.854,-0.15,-0.05,-0.53,-0.05,-0.03,-0.04,
0.856,-0.15,-0.05,-0.53,-0.05,-0.04,-0.04,
0.86,-0.26,-0.03,-0.53,-0.05,-0.04,-0.04,
0.86,-0.26,-0.03,-0.53,-0.05,-0.04,-0.04,
0.862,-0.26,-0.03,-0.53,-0.07,-0.06,-0.04,
0.862,-0.26,-0.03,-0.53,-0.07,-0.06,-0.04,
0.867,-0.26,-0.03,-0.53,-0.07,-0.06,-0.04,
0.867,-0.26,-0.03,-0.53,-0.07,-0.07,-0.03,
0.87,-0.31,-0.01,-0.45,-0.07,-0.07,-0.03,
0.871,-0.31,-0.01,-0.45,-0.07,-0.07,-0.03,
0.873,-0.31,-0.01,-0.45,-0.07,-0.07,-0.03,
0.874,-0.31,-0.01,-0.45,-0.07,-0.08,-0.03,
0.874,-0.31,-0.01,-0.45,-0.07,-0.08,-0.03,
0.879,-0.31,-0.01,-0.45,-0.07,-0.09,-0.03,
0.881,-0.25,-0.04,-0.27,-0.07,-0.09,-0.03,
0.882,-0.25,-0.04,-0.27,-0.07,-0.09,-0.03,
0.883,-0.25,-0.04,-0.27,-0.07,-0.10,-0.02,
0.883,-0.25,-0.04,-0.27,-0.06,-0.11,-0.02,
0.885,-0.25,-0.04,-0.27,-0.06,-0.11,-0.03,
0.887,-0.25,-0.04,-0.27,-0.05,-0.12,-0.02,
0.889,-0.20,-0.06,-0.10,-0.05,-0.12,-0.02,
0.89,-0.20,-0.06,-0.10,-0.05,-0.12,-0.02,
0.896,-0.20,-0.06,-0.10,-0.04,-0.13,-0.02,
0.897,-0.20,-0.06,-0.10,-0.04,-0.13,-0.03,
0.897,-0.20,-0.06,-0.10,-0.03,-0.14,-0.03,
0.898,-0.20,-0.06,-0.10,-0.02,-0.14,-0.03,
0.898,-0.15,-0.04,0.01,-0.02,-0.14,-0.03,
0.899,-0.15,-0.04,0.01,-0.02,-0.14,-0.03,
0.903,-0.15,-0.04,0.01,-0.01,-0.14,-0.03,
0.904,-0.15,-0.04,0.01,-0.00,-0.14,-0.03,
0.905,-0.15,-0.04,0.01,-0.00,-0.13,-0.03,
0.907,-0.15,-0.04,0.01,0.01,-0.13,-0.03,
0.912,-0.08,-0.07,0.01,0.01,-0.13,-0.03,
0.913,-0.08,-0.07,0.01,0.01,-0.13,-0.04,
0.913,-0.08,-0.07,0.01,0.01,-0.13,-0.04,
0.913,-0.08,-0.07,0.01,0.01,-0.13,-0.04,
0.914,-0.08,-0.07,0.01,0.01,-0.14,-0.04,
0.917,-0.08,-0.07,0.01,0.01,-0.14,-0.04,
0.919,0.03,-0.25,-0.18,0.01,-0.14,-0.04,
0.919,0.03,-0.25,-0.18,0.01,-0.15,-0.04,
0.924,0.03,-0.25,-0.18,0.00,-0.15,-0.05,
0.925,0.03,-0.25,-0.18,0.00,-0.15,-0.05,
0.925,0.03,-0.25,-0.18,0.00,-0.14,-0.05,
0.927,0.03,-0.25,-0.18,0.00,-0.13,-0.05,
0.929,-0.11,-0.15,-0.22,0.00,-0.13,-0.05,
0.929,-0.11,-0.15,-0.22,0.00,-0.12,-0.05,
0.931,-0.11,-0.15,-0.22,0.00,-0.11,-0.04,
0.932,-0.11,-0.15,-0.22,-0.00,-0.11,-0.03,
0.934,-0.11,-0.15,-0.22,-0.01,-0.10,-0.03,
0.936,-0.11,-0.15,-0.22,-0.01,-0.10,-0.02,
0.938,-0.23,-0.01,-0.43,-0.01,-0.10,-0.02,
0.939,-0.23,-0.01,-0.43,-0.02,-0.09,-0.02,
0.941,-0.23,-0.01,-0.43,-0.04,-0.10,-0.01,
0.943,-0.23,-0.01,-0.43,-0.04,-0.10,-0.01,
0.944,-0.23,-0.01,-0.43,-0.06,-0.11,-0.00,
0.947,-0.23,-0.01,-0.43,-0.06,-0.11,-0.00,
0.948,-0.25,0.01,-0.51,-0.06,-0.11,-0.00,
0.949,-0.25,0.01,-0.51,-0.07,-0.12,-0.00,
0.951,-0.25,0.01,-0.51,-0.08,-0.13,0.00,
0.953,-0.25,0.01,-0.51,-0.08,-0.13,0.00,
0.955,-0.25,0.01,-0.51,-0.09,-0.14,0.00,
0.962,-0.25,0.01,-0.51,-0.09,-0.15,0.00,
0.963,-0.22,0.01,-0.40,-0.09,-0.15,0.00,
0.964,-0.22,0.01,-0.40,-0.09,-0.16,0.00,
0.965,-0.22,0.01,-0.40,-0.10,-0.17,-0.00,
0.965,-0.22,0.01,-0.40,-0.10,-0.17,-0.00,
0.965,-0.22,0.01,-0.40,-0.10,-0.17,-0.00,
0.969,-0.22,0.01,-0.40,-0.10,-0.18,-0.00,
0.97,-0.19,0.07,-0.19,-0.10,-0.18,-0.00,
0.97,-0.19,0.07,-0.19,-0.10,-0.18,-0.01,
1.005,-0.19,0.07,-0.19,-0.09,-0.18,-0.01,
1.006,-0.19,0.07,-0.19,-0.09,-0.18,-0.01,
1.009,-0.19,0.07,-0.19,-0.09,-0.18,-0.01,
1.009,-0.19,0.07,-0.19,-0.08,-0.19,-0.01,
1.01,-0.04,0.07,0.02,-0.08,-0.19,-0.01,
1.01,-0.04,0.07,0.02,-0.08,-0.19,-0.01,
1.01,-0.04,0.07,0.02,-0.07,-0.19,-0.01,
1.011,-0.04,0.07,0.02,-0.07,-0.19,-0.01,
1.011,-0.04,0.07,0.02,-0.07,-0.19,-0.01,
1.012,-0.04,0.07,0.02,-0.06,-0.19,-0.01,
1.012,0.03,0.03,0.14,-0.06,-0.19,-0.01,
1.012,0.03,0.03,0.14,-0.05,-0.19,-0.01,
1.013,0.03,0.03,0.14,-0.05,-0.19,-0.02,
1.013,0.03,0.03,0.14,-0.04,-0.19,-0.02,
1.014,0.03,0.03,0.14,-0.04,-0.19,-0.02,
1.014,0.03,0.03,0.14,-0.03,-0.20,-0.02,
1.015,0.02,-0.03,0.16,-0.03,-0.20,-0.02,
1.015,0.02,-0.03,0.16,-0.03,-0.20,-0.02,
1.015,0.02,-0.03,0.16,-0.02,-0.20,-0.02,
1.016,0.02,-0.03,0.16,-0.02,-0.21,-0.02,
1.016,0.02,-0.03,0.16,-0.02,-0.21,-0.03,
1.017,0.02,-0.03,0.16,-0.02,-0.21,-0.03,
1.017,0.00,-0.02,0.09,-0.02,-0.21,-0.03,
1.018,0.00,-0.02,0.09,-0.01,-0.22,-0.03,
1.018,0.00,-0.02,0.09,-0.01,-0.22,-0.03,
1.018,0.00,-0.02,0.09,-0.01,-0.22,-0.03,
1.019,0.00,-0.02,0.09,-0.00,-0.22,-0.03,
1.019,0.00,-0.02,0.09,-0.00,-0.22,-0.04,
1.02,0.01,-0.00,0.09,-0.00,-0.22,-0.04,
1.02,0.01,-0.00,0.09,0.00,-0.22,-0.04,
1.025,0.01,-0.00,0.09,0.01,-0.23,-0.04,
1.026,0.01,-0.00,0.09,0.01,-0.23,-0.04,
1.027,0.01,-0.00,0.09,0.01,-0.23,-0.04,
1.027,0.01,-0.00,0.09,0.02,-0.23,-0.05,
1.03,0.02,0.09,0.16,0.02,-0.23,-0.05,
1.031,0.02,0.09,0.16,0.02,-0.23,-0.05,
1.032,0.02,0.09,0.16,0.03,-0.23,-0.05,
1.035,0.02,0.09,0.16,0.03,-0.22,-0.06,
1.036,0.02,0.09,0.16,0.04,-0.22,-0.06,
1.037,0.02,0.09,0.16,0.04,-0.22,-0.06,
1.039,-0.04,0.11,0.17,0.04,-0.22,-0.06,
1.039,-0.04,0.11,0.17,0.04,-0.22,-0.06,
1.044,-0.04,0.11,0.17,0.04,-0.21,-0.06,
1.045,-0.04,0.11,0.17,0.05,-0.20,-0.05,
1.046,-0.04,0.11,0.17,0.05,-0.20,-0.05,
1.047,-0.04,0.11,0.17,0.05,-0.20,-0.05,
1.048,-0.16,0.08,0.03,0.05,-0.20,-0.05,
1.049,-0.16,0.08,0.03,0.04,-0.19,-0.05,
1.051,-0.16,0.08,0.03,0.04,-0.18,-0.04,
1.052,-0.16,0.08,0.03,0.04,-0.18,-0.03,
1.055,-0.16,0.08,0.03,0.03,-0.18,-0.03,
1.057,-0.16,0.08,0.03,0.03,-0.17,-0.03,
1.064,-0.28,0.01,-0.25,0.03,-0.17,-0.03,
1.064,-0.28,0.01,-0.25,0.02,-0.16,-0.02,
1.065,-0.28,0.01,-0.25,-0.00,-0.15,-0.00,
1.065,-0.28,0.01,-0.25,-0.01,-0.13,0.01,
1.066,-0.28,0.01,-0.25,-0.02,-0.13,0.02,
1.067,-0.28,0.01,-0.25,-0.03,-0.12,0.03,
1.069,-0.68,-0.04,-0.57,-0.03,-0.12,0.03,
1.069,-0.68,-0.04,-0.57,-0.05,-0.12,0.04,
1.071,-0.68,-0.04,-0.57,-0.06,-0.12,0.06,
1.073,-0.68,-0.04,-0.57,-0.07,-0.12,0.07,
1.075,-0.68,-0.04,-0.57,-0.08,-0.13,0.08,
1.077,-0.68,-0.04,-0.57,-0.09,-0.13,0.09,
1.079,-0.67,-0.04,-0.45,-0.09,-0.13,0.09,
1.08,-0.67,-0.04,-0.45,-0.10,-0.13,0.10,
1.082,-0.67,-0.04,-0.45,-0.11,-0.14,0.12,
1.085,-0.67,-0.04,-0.45,-0.12,-0.14,0.12,
1.086,-0.67,-0.04,-0.45,-0.12,-0.14,0.13,
1.088,-0.67,-0.04,-0.45,-0.12,-0.14,0.13,
1.094,-0.48,0.02,-0.27,-0.12,-0.14,0.13,
1.095,-0.48,0.02,-0.27,-0.13,-0.14,0.13,
1.095,-0.48,0.02,-0.27,-0.13,-0.14,0.14,
1.095,-0.48,0.02,-0.27,-0.13,-0.14,0.13,
1.095,-0.48,0.02,-0.27,-0.13,-0.14,0.13,
1.097,-0.48,0.02,-0.27,-0.13,-0.14,0.12,
1.099,-0.11,0.12,-0.00,-0.13,-0.14,0.12,
1.1,-0.11,0.12,-0.00,-0.13,-0.15,0.12,
1.102,-0.11,0.12,-0.00,-0.12,-0.15,0.10,
1.102,-0.11,0.12,-0.00,-0.12,-0.16,0.10,
1.105,-0.11,0.12,-0.00,-0.11,-0.17,0.09,
1.116,-0.11,0.12,-0.00,-0.11,-0.17,0.08,
1.117,0.11,0.19,0.20,-0.11,-0.17,0.08,
1.118,0.11,0.19,0.20,-0.10,-0.18,0.07,
1.119,0.11,0.19,0.20,-0.08,-0.19,0.06,
1.12,0.11,0.19,0.20,-0.07,-0.20,0.05,
1.121,0.11,0.19,0.20,-0.07,-0.20,0.05,
1.121,0.11,0.19,0.20,-0.06,-0.20,0.04,
1.122,0.03,0.20,0.39,-0.06,-0.20,0.04,
1.123,0.03,0.20,0.39,-0.04,-0.21,0.04,
1.124,0.03,0.20,0.39,-0.02,-0.21,0.03,
1.124,0.03,0.20,0.39,-0.01,-0.21,0.03,
1.125,0.03,0.20,0.39,-0.01,-0.21,0.03,
1.136,0.03,0.20,0.39,0.01,-0.22,0.03,
1.138,-0.12,0.14,0.44,0.01,-0.22,0.03,
1.139,-0.12,0.14,0.44,0.02,-0.22,0.03,
1.14,-0.12,0.14,0.44,0.04,-0.22,0.03,
1.141,-0.12,0.14,0.44,0.05,-0.22,0.03,
1.142,-0.12,0.14,0.44,0.05,-0.22,0.03,
1.143,-0.12,0.14,0.44,0.06,-0.23,0.04,
1.175,-0.20,0.13,0.41,0.06,-0.23,0.04,
1.175,-0.20,0.13,0.41,0.07,-0.23,0.04,
1.176,-0.20,0.13,0.41,0.09,-0.24,0.05,
1.176,-0.20,0.13,0.41,0.10,-0.24,0.05,
1.176,-0.20,0.13,0.41,0.11,-0.24,0.05,
1.177,-0.20,0.13,0.41,0.12,-0.24,0.05,
1.177,-0.24,0.13,0.37,0.12,-0.24,0.05,
1.178,-0.24,0.13,0.37,0.13,-0.24,0.05,
1.178,-0.24,0.13,0.37,0.14,-0.24,0.06,
1.178,-0.24,0.13,0.37,0.15,-0.24,0.05,
1.179,-0.24,0.13,0.37,0.15,-0.24,0.05,
1.179,-0.24,0.13,0.37,0.16,-0.24,0.05,
1.18,-0.17,0.13,0.30,0.16,-0.24,0.05,
1.18,-0.17,0.13,0.30,0.17,-0.23,0.05,
1.18,-0.17,0.13,0.30,0.17,-0.23,0.05,
1.181,-0.17,0.13,0.30,0.18,-0.22,0.05,
1.181,-0.17,0.13,0.30,0.18,-0.22,0.05,
1.182,-0.17,0.13,0.30,0.18,-0.22,0.05,
1.182,-0.08,0.14,0.12,0.18,-0.22,0.05,
1.183,-0.08,0.14,0.12,0.18,-0.21,0.04,
1.183,-0.08,0.14,0.12,0.17,-0.20,0.04,
1.183,-0.08,0.14,0.12,0.16,-0.20,0.03,
1.184,-0.08,0.14,0.12,0.16,-0.19,0.03,
1.184,-0.08,0.14,0.12,0.15,-0.19,0.02,
1.185,-0.01,0.21,-0.28,0.15,-0.19,0.02,
1.185,-0.01,0.21,-0.28,0.14,-0.20,0.02,
1.185,-0.01,0.21,-0.28,0.11,-0.20,0.01,
1.186,-0.01,0.21,-0.28,0.10,-0.20,0.00,
1.186,-0.01,0.21,-0.28,0.09,-0.20,0.00,
1.187,-0.01,0.21,-0.28,0.07,-0.21,-0.01,
1.191,0.04,0.25,-0.69,0.07,-0.21,-0.01,
1.192,0.04,0.25,-0.69,0.05,-0.22,-0.01,
1.193,0.04,0.25,-0.69,0.03,-0.22,-0.02,
1.193,0.04,0.25,-0.69,0.01,-0.22,-0.03,
1.197,0.04,0.25,-0.69,-0.00,-0.23,-0.04,
1.197,0.04,0.25,-0.69,-0.02,-0.23,-0.05,
1.201,0.12,0.26,-0.81,-0.02,-0.23,-0.05,
1.201,0.12,0.26,-0.81,-0.04,-0.24,-0.05,
1.201,0.12,0.26,-0.81,-0.05,-0.24,-0.06,
1.204,0.12,0.26,-0.81,-0.06,-0.25,-0.07,
1.205,0.12,0.26,-0.81,-0.08,-0.25,-0.07,
1.209,0.12,0.26,-0.81,-0.09,-0.26,-0.08,
1.21,0.04,0.24,-0.68,-0.09,-0.26,-0.08,
1.21,0.04,0.24,-0.68,-0.10,-0.27,-0.08,
1.211,0.04,0.24,-0.68,-0.10,-0.28,-0.08,
1.214,0.04,0.24,-0.68,-0.10,-0.29,-0.09,
1.215,0.04,0.24,-0.68,-0.11,-0.30,-0.09,
1.218,0.04,0.24,-0.68,-0.11,-0.31,-0.09,
1.219,-0.09,0.19,-0.34,-0.11,-0.31,-0.09,
1.219,-0.09,0.19,-0.34,-0.10,-0.32,-0.09,
1.221,-0.09,0.19,-0.34,-0.10,-0.33,-0.09,
1.225,-0.09,0.19,-0.34,-0.09,-0.34,-0.09,
1.226,-0.09,0.19,-0.34,-0.09,-0.33,-0.08,
1.231,-0.09,0.19,-0.34,-0.08,-0.33,-0.08,
1.231,-0.23,0.09,0.08,-0.08,-0.33,-0.08,
1.231,-0.23,0.09,0.08,-0.07,-0.33,-0.08,
1.232,-0.23,0.09,0.08,-0.06,-0.32,-0.07,
1.232,-0.23,0.09,0.08,-0.05,-0.31,-0.06,
1.236,-0.23,0.09,0.08,-0.04,-0.30,-0.06,
1.237,-0.23,0.09,0.08,-0.03,-0.29,-0.05,
1.238,-0.29,-0.08,0.29,-0.03,-0.29,-0.05,
1.239,-0.29,-0.08,0.29,-0.02,-0.27,-0.04,
1.25,-0.29,-0.08,0.29,-0.01,-0.25,-0.03,
1.252,-0.29,-0.08,0.29,0.00,-0.24,-0.02,
1.252,-0.29,-0.08,0.29,0.01,-0.23,-0.01,
1.253,-0.29,-0.08,0.29,0.03,-0.22,0.01,
1.253,-0.45,-0.16,0.46,0.03,-0.22,0.01,
1.254,-0.45,-0.16,0.46,0.04,-0.21,0.02,
1.254,-0.45,-0.16,0.46,0.05,-0.20,0.03,
1.255,-0.45,-0.16,0.46,0.06,-0.19,0.04,
1.255,-0.45,-0.16,0.46,0.08,-0.18,0.05,
1.274,-0.45,-0.16,0.46,0.09,-0.18,0.06,
1.275,-0.38,-0.09,0.58,0.09,-0.18,0.06,
1.275,-0.38,-0.09,0.58,0.11,-0.18,0.06,
1.276,-0.38,-0.09,0.58,0.12,-0.19,0.07,
1.276,-0.38,-0.09,0.58,0.13,-0.19,0.07,
1.276,-0.38,-0.09,0.58,0.15,-0.21,0.08,
1.276,-0.38,-0.09,0.58,0.16,-0.23,0.08,
1.277,-0.19,0.04,0.49,0.16,-0.23,0.08,
1.277,-0.19,0.04,0.49,0.17,-0.27,0.08,
1.277,-0.19,0.04,0.49,0.18,-0.31,0.08,
1.277,-0.19,0.04,0.49,0.18,-0.44,0.08,
1.278,-0.19,0.04,0.49,0.17,-0.59,0.09,
1.278,-0.19,0.04,0.49,0.16,-0.69,0.10,
1.278,0.52,-0.29,-0.58,0.16,-0.69,0.10,
1.279,0.52,-0.29,-0.58,0.15,-0.76,0.11,
1.281,0.52,-0.29,-0.58,0.15,-0.82,0.11,
1.282,0.52,-0.29,-0.58,0.14,-0.87,0.10,
1.284,0.52,-0.29,-0.58,0.14,-0.91,0.10,
1.286,0.52,-0.29,-0.58,0.15,-0.93,0.10,
1.29,-0.10,0.29,-0.46,0.15,-0.93,0.10,
1.291,-0.10,0.29,-0.46,0.15,-0.94,0.09,
1.292,-0.10,0.29,-0.46,0.15,-0.94,0.08,
1.292,-0.10,0.29,-0.46,0.15,-0.94,0.06,
1.295,-0.10,0.29,-0.46,0.15,-0.94,0.05,
1.296,-0.10,0.29,-0.46,0.14,-0.93,0.03,
1.298,-0.01,0.52,-0.36,0.14,-0.93,0.03,
1.299,-0.01,0.52,-0.36,0.14,-0.92,0.02,
1.301,-0.01,0.52,-0.36,0.13,-0.91,-0.00,
1.303,-0.01,0.52,-0.36,0.12,-0.90,-0.02,
1.332,-0.01,0.52,-0.36,0.11,-0.89,-0.04,
1.332,-0.01,0.52,-0.36,0.11,-0.88,-0.05,
1.333,0.16,0.38,-0.52,0.11,-0.88,-0.05,
1.333,0.16,0.38,-0.52,0.10,-0.87,-0.06,
1.334,0.16,0.38,-0.52,0.10,-0.85,-0.07,
1.334,0.16,0.38,-0.52,0.09,-0.84,-0.07,
1.334,0.16,0.38,-0.52,0.09,-0.83,-0.08,
1.335,0.16,0.38,-0.52,0.09,-0.83,-0.07,
1.335,-0.04,0.40,-0.15,0.09,-0.83,-0.07,
1.336,-0.04,0.40,-0.15,0.09,-0.82,-0.06,
1.336,-0.04,0.40,-0.15,0.09,-0.81,-0.06,
1.336,-0.04,0.40,-0.15,0.10,-0.80,-0.05,
1.337,-0.04,0.40,-0.15,0.10,-0.78,-0.05,
1.337,-0.04,0.40,-0.15,0.11,-0.76,-0.05,
1.338,-0.16,0.31,0.11,0.11,-0.76,-0.05,
1.338,-0.16,0.31,0.11,0.12,-0.74,-0.04,
1.338,-0.16,0.31,0.11,0.13,-0.72,-0.04,
1.339,-0.16,0.31,0.11,0.13,-0.70,-0.04,
1.339,-0.16,0.31,0.11,0.14,-0.67,-0.04,
1.34,-0.16,0.31,0.11,0.15,-0.65,-0.03,
1.34,-0.29,-0.01,0.07,0.15,-0.65,-0.03,
1.341,-0.29,-0.01,0.07,0.15,-0.63,-0.03,
1.341,-0.29,-0.01,0.07,0.16,-0.60,-0.03,
1.343,-0.29,-0.01,0.07,0.16,-0.58,-0.02,
1.345,-0.29,-0.01,0.07,0.16,-0.55,-0.02,
1.347,-0.29,-0.01,0.07,0.16,-0.53,-0.01,
1.349,-0.36,-0.17,-0.19,0.16,-0.53,-0.01,
1.349,-0.36,-0.17,-0.19,0.15,-0.50,-0.01,
1.351,-0.36,-0.17,-0.19,0.15,-0.48,-0.00,
1.352,-0.36,-0.17,-0.19,0.14,-0.45,0.01,
1.357,-0.36,-0.17,-0.19,0.13,-0.43,0.02,
1.357,-0.36,-0.17,-0.19,0.11,-0.41,0.02,
1.362,-0.41,-0.14,-0.60,0.11,-0.41,0.02,
1.364,-0.41,-0.14,-0.60,0.10,-0.39,0.03,
1.365,-0.41,-0.14,-0.60,0.08,-0.36,0.04,
1.366,-0.41,-0.14,-0.60,0.06,-0.34,0.05,
1.366,-0.41,-0.14,-0.60,0.03,-0.32,0.05,
1.367,-0.41,-0.14,-0.60,0.00,-0.29,0.06,
1.372,-0.47,0.02,-1.01,0.00,-0.29,0.06,
1.372,-0.47,0.02,-1.01,-0.03,-0.26,0.07,
1.373,-0.47,0.02,-1.01,-0.05,-0.24,0.07,
1.373,-0.47,0.02,-1.01,-0.08,-0.21,0.07,
1.387,-0.47,0.02,-1.01,-0.11,-0.19,0.07,
1.388,-0.47,0.02,-1.01,-0.14,-0.16,0.07,
1.389,-0.34,0.19,-1.12,-0.14,-0.16,0.07,
1.389,-0.34,0.19,-1.12,-0.16,-0.14,0.07,
1.389,-0.34,0.19,-1.12,-0.19,-0.13,0.07,
1.389,-0.34,0.19,-1.12,-0.21,-0.11,0.07,
1.39,-0.34,0.19,-1.12,-0.23,-0.10,0.06,
1.39,-0.34,0.19,-1.12,-0.25,-0.09,0.06,
1.39,-0.18,0.31,-0.91,-0.25,-0.09,0.06,
1.391,-0.18,0.31,-0.91,-0.27,-0.09,0.05,
1.397,-0.18,0.31,-0.91,-0.29,-0.08,0.04,
1.398,-0.18,0.31,-0.91,-0.29,-0.08,0.03,
1.398,-0.18,0.31,-0.91,-0.31,-0.07,0.02,
1.398,-0.18,0.31,-0.91,-0.32,-0.07,0.01,
1.405,-0.00,0.34,-0.74,-0.32,-0.07,0.01,
1.406,-0.00,0.34,-0.74,-0.33,-0.07,-0.00,
1.407,-0.00,0.34,-0.74,-0.35,-0.07,-0.01,
1.408,-0.00,0.34,-0.74,-0.35,-0.07,-0.02,
1.409,-0.00,0.34,-0.74,-0.36,-0.07,-0.03,
1.409,-0.00,0.34,-0.74,-0.36,-0.06,-0.03,
1.41,-0.06,0.29,-0.53,-0.36,-0.06,-0.03,
1.41,-0.06,0.29,-0.53,-0.37,-0.06,-0.04,
1.413,-0.06,0.29,-0.53,-0.37,-0.04,-0.05,
1.416,-0.06,0.29,-0.53,-0.37,-0.04,-0.06,
1.417,-0.06,0.29,-0.53,-0.36,-0.03,-0.06,
1.418,-0.06,0.29,-0.53,-0.36,-0.02,-0.07,
1.421,-0.13,0.15,-0.13,-0.36,-0.02,-0.07,
1.422,-0.13,0.15,-0.13,-0.35,-0.01,-0.07,
1.422,-0.13,0.15,-0.13,-0.34,-0.01,-0.08,
1.422,-0.13,0.15,-0.13,-0.33,-0.01,-0.08,
1.425,-0.13,0.15,-0.13,-0.32,-0.01,-0.08,
1.426,-0.13,0.15,-0.13,-0.31,-0.01,-0.09,
1.428,-0.16,0.12,0.18,-0.31,-0.01,-0.09,
1.429,-0.16,0.12,0.18,-0.29,-0.01,-0.09,
1.431,-0.16,0.12,0.18,-0.27,-0.02,-0.09,
1.432,-0.16,0.12,0.18,-0.26,-0.02,-0.09,
1.435,-0.16,0.12,0.18,-0.24,-0.02,-0.09,
1.436,-0.16,0.12,0.18,-0.22,-0.02,-0.10,
1.439,-0.16,0.13,0.28,-0.22,-0.02,-0.10,
1.44,-0.16,0.13,0.28,-0.20,-0.03,-0.10,
1.441,-0.16,0.13,0.28,-0.17,-0.04,-0.10,
1.442,-0.16,0.13,0.28,-0.17,-0.04,-0.10,
1.444,-0.16,0.13,0.28,-0.14,-0.05,-0.10,
1.446,-0.16,0.13,0.28,-0.12,-0.06,-0.10,
1.449,-0.23,0.13,0.42,-0.12,-0.06,-0.10,
1.449,-0.23,0.13,0.42,-0.11,-0.06,-0.10,
1.452,-0.23,0.13,0.42,-0.08,-0.07,-0.09,
1.452,-0.23,0.13,0.42,-0.07,-0.07,-0.09,
1.458,-0.23,0.13,0.42,-0.04,-0.08,-0.09,
1.461,-0.34,0.08,0.38,-0.04,-0.08,-0.09,
1.461,-0.34,0.08,0.38,-0.02,-0.08,-0.08,
1.462,-0.34,0.08,0.38,-0.02,-0.08,-0.08,
1.463,-0.34,0.08,0.38,0.00,-0.08,-0.08,
1.464,-0.34,0.08,0.38,0.01,-0.08,-0.08,
1.465,-0.34,0.08,0.38,0.02,-0.08,-0.07,
1.469,-0.34,0.08,0.38,0.03,-0.08,-0.07,
1.469,-0.40,0.04,0.21,0.03,-0.08,-0.07,
1.469,-0.40,0.04,0.21,0.04,-0.08,-0.06,
1.503,-0.40,0.04,0.21,0.05,-0.09,-0.06,
1.503,-0.40,0.04,0.21,0.06,-0.08,-0.05,
1.504,-0.40,0.04,0.21,0.06,-0.09,-0.05,
1.504,-0.40,0.04,0.21,0.07,-0.09,-0.04,
1.505,-0.47,0.07,0.11,0.07,-0.09,-0.04,
1.505,-0.47,0.07,0.11,0.07,-0.09,-0.04,
1.505,-0.47,0.07,0.11,0.08,-0.09,-0.03,
1.506,-0.47,0.07,0.11,0.08,-0.09,-0.03,
1.506,-0.47,0.07,0.11,0.08,-0.10,-0.03,
1.507,-0.47,0.07,0.11,0.08,-0.10,-0.03,
1.507,-0.48,0.07,-0.06,0.08,-0.10,-0.03,
1.508,-0.48,0.07,-0.06,0.08,-0.10,-0.03,
1.508,-0.48,0.07,-0.06,0.07,-0.10,-0.02,
1.508,-0.48,0.07,-0.06,0.07,-0.10,-0.02,
1.509,-0.48,0.07,-0.06,0.06,-0.10,-0.02,
1.509,-0.48,0.07,-0.06,0.06,-0.11,-0.02,
1.51,-0.34,0.09,-0.28,0.06,-0.11,-0.02,
1.51,-0.34,0.09,-0.28,0.05,-0.11,-0.03,
1.51,-0.34,0.09,-0.28,0.03,-0.11,-0.03,
1.511,-0.34,0.09,-0.28,0.03,-0.12,-0.03,
1.511,-0.34,0.09,-0.28,0.02,-0.13,-0.03,
1.511,-0.34,0.09,-0.28,0.00,-0.14,-0.04,
1.512,-0.21,0.15,-0.71,0.00,-0.14,-0.04,
1.512,-0.21,0.15,-0.71,-0.01,-0.15,-0.05,
1.513,-0.21,0.15,-0.71,-0.03,-0.16,-0.06,
1.513,-0.21,0.15,-0.71,-0.04,-0.16,-0.06,
1.518,-0.21,0.15,-0.71,-0.06,-0.18,-0.07,
1.518,-0.21,0.15,-0.71,-0.07,-0.19,-0.08,
1.519,-0.12,0.14,-0.92,-0.07,-0.19,-0.08,
1.519,-0.12,0.14,-0.92,-0.08,-0.19,-0.08,
1.526,-0.12,0.14,-0.92,-0.10,-0.20,-0.09,
1.526,-0.12,0.14,-0.92,-0.10,-0.21,-0.10,
1.526,-0.12,0.14,-0.92,-0.12,-0.22,-0.10,
1.527,-0.12,0.14,-0.92,-0.12,-0.22,-0.11,
1.53,-0.14,0.04,-0.96,-0.12,-0.22,-0.11,
1.531,-0.14,0.04,-0.96,-0.13,-0.23,-0.11,
1.531,-0.14,0.04,-0.96,-0.14,-0.25,-0.12,
1.532,-0.14,0.04,-0.96,-0.15,-0.26,-0.12,
1.534,-0.14,0.04,-0.96,-0.15,-0.27,-0.13,
1.536,-0.14,0.04,-0.96,-0.16,-0.29,-0.13,
1.541,-0.22,-0.06,-0.79,-0.16,-0.29,-0.13,
1.541,-0.22,-0.06,-0.79,-0.16,-0.30,-0.13,
1.542,-0.22,-0.06,-0.79,-0.17,-0.32,-0.14,
1.546,-0.22,-0.06,-0.79,-0.17,-0.32,-0.14,
1.546,-0.22,-0.06,-0.79,-0.17,-0.33,-0.13,
1.546,-0.22,-0.06,-0.79,-0.18,-0.34,-0.13,
1.548,-0.36,-0.13,-0.66,-0.18,-0.34,-0.13,
1.548,-0.36,-0.13,-0.66,-0.18,-0.35,-0.13,
1.551,-0.36,-0.13,-0.66,-0.18,-0.36,-0.13,
1.552,-0.36,-0.13,-0.66,-0.18,-0.36,-0.13,
1.561,-0.36,-0.13,-0.66,-0.18,-0.37,-0.12,
1.562,-0.36,-0.13,-0.66,-0.18,-0.38,-0.12,
1.563,-0.44,-0.21,-0.47,-0.18,-0.38,-0.12,
1.563,-0.44,-0.21,-0.47,-0.18,-0.39,-0.12,
1.563,-0.44,-0.21,-0.47,-0.18,-0.40,-0.11,
1.564,-0.44,-0.21,-0.47,-0.17,-0.41,-0.11,
1.565,-0.44,-0.21,-0.47,-0.17,-0.42,-0.10,
1.567,-0.44,-0.21,-0.47,-0.17,-0.43,-0.10,
1.569,-0.43,-0.30,-0.16,-0.17,-0.43,-0.10,
1.569,-0.43,-0.30,-0.16,-0.16,-0.43,-0.09,
1.574,-0.43,-0.30,-0.16,-0.15,-0.43,-0.09,
1.575,-0.43,-0.30,-0.16,-0.15,-0.43,-0.08,
1.575,-0.43,-0.30,-0.16,-0.14,-0.43,-0.08,
1.576,-0.43,-0.30,-0.16,-0.14,-0.42,-0.07,
1.579,-0.36,-0.33,-0.03,-0.14,-0.42,-0.07,
1.579,-0.36,-0.33,-0.03,-0.13,-0.42,-0.07,
1.581,-0.36,-0.33,-0.03,-0.13,-0.41,-0.06,
1.582,-0.36,-0.33,-0.03,-0.12,-0.41,-0.06,
1.584,-0.36,-0.33,-0.03,-0.12,-0.41,-0.06,
1.586,-0.36,-0.33,-0.03,-0.11,-0.40,-0.05,
1.588,-0.26,-0.37,0.08,-0.11,-0.40,-0.05,
1.589,-0.26,-0.37,0.08,-0.11,-0.40,-0.05,
1.591,-0.26,-0.37,0.08,-0.10,-0.40,-0.05,
1.593,-0.26,-0.37,0.08,-0.09,-0.39,-0.05,
1.594,-0.26,-0.37,0.08,-0.09,-0.39,-0.05,
1.598,-0.26,-0.37,0.08,-0.09,-0.38,-0.05,
1.599,-0.21,-0.29,0.04,-0.09,-0.38,-0.05,
1.6,-0.21,-0.29,0.04,-0.08,-0.37,-0.04,
1.605,-0.21,-0.29,0.04,-0.08,-0.35,-0.04,
1.606,-0.21,-0.29,0.04,-0.08,-0.34,-0.04,
1.607,-0.21,-0.29,0.04,-0.08,-0.34,-0.04,
1.607,-0.21,-0.29,0.04,-0.08,-0.33,-0.04,
1.608,-0.21,-0.24,-0.20,-0.08,-0.33,-0.04,
1.609,-0.21,-0.24,-0.20,-0.09,-0.32,-0.03,
1.611,-0.21,-0.24,-0.20,-0.09,-0.32,-0.04,
1.612,-0.21,-0.24,-0.20,-0.09,-0.32,-0.04,
1.615,-0.21,-0.24,-0.20,-0.09,-0.33,-0.04,
1.616,-0.21,-0.24,-0.20,-0.09,-0.34,-0.04,
1.618,-0.09,-0.23,-0.25,-0.09,-0.34,-0.04,
1.619,-0.09,-0.23,-0.25,-0.09,-0.34,-0.05,
1.623,-0.09,-0.23,-0.25,-0.09,-0.36,-0.06,
1.624,-0.09,-0.23,-0.25,-0.09,-0.36,-0.06,
1.625,-0.09,-0.23,-0.25,-0.09,-0.37,-0.06,
1.626,-0.09,-0.23,-0.25,-0.08,-0.37,-0.07,
1.629,-0.10,-0.13,-0.26,-0.08,-0.37,-0.07,
1.629,-0.10,-0.13,-0.26,-0.08,-0.38,-0.08,
1.631,-0.10,-0.13,-0.26,-0.08,-0.39,-0.08,
1.632,-0.10,-0.13,-0.26,-0.08,-0.39,-0.09,
1.634,-0.10,-0.13,-0.26,-0.09,-0.40,-0.09,
1.638,-0.10,-0.13,-0.26,-0.09,-0.41,-0.10,
1.673,-0.12,-0.13,-0.52,-0.09,-0.41,-0.10,
1.674,-0.12,-0.13,-0.52,-0.10,-0.43,-0.10,
1.675,-0.12,-0.13,-0.52,-0.10,-0.45,-0.11,
1.675,-0.12,-0.13,-0.52,-0.11,-0.46,-0.11,
1.676,-0.12,-0.13,-0.52,-0.11,-0.48,-0.12,
1.676,-0.12,-0.13,-0.52,-0.12,-0.50,-0.12,
1.677,-0.25,-0.10,-0.69,-0.12,-0.50,-0.12,
1.677,-0.25,-0.10,-0.69,-0.13,-0.52,-0.12,
1.678,-0.25,-0.10,-0.69,-0.14,-0.55,-0.12,
1.678,-0.25,-0.10,-0.69,-0.14,-0.56,-0.12,
1.678,-0.25,-0.10,-0.69,-0.14,-0.58,-0.12,
1.679,-0.25,-0.10,-0.69,-0.15,-0.59,-0.12,
1.679,-0.32,-0.13,-0.71,-0.15,-0.59,-0.12,
1.68,-0.32,-0.13,-0.71,-0.16,-0.60,-0.12,
1.68,-0.32,-0.13,-0.71,-0.17,-0.61,-0.11,
1.68,-0.32,-0.13,-0.71,-0.17,-0.62,-0.11,
1.681,-0.32,-0.13,-0.71,-0.18,-0.62,-0.10,
1.681,-0.32,-0.13,-0.71,-0.19,-0.62,-0.10,
1.682,-0.45,-0.18,-0.68,-0.19,-0.62,-0.10,
1.682,-0.45,-0.18,-0.68,-0.20,-0.62,-0.10,
1.683,-0.45,-0.18,-0.68,-0.21,-0.61,-0.09,
1.683,-0.45,-0.18,-0.68,-0.22,-0.61,-0.09,
1.683,-0.45,-0.18,-0.68,-0.22,-0.61,-0.09,
1.684,-0.45,-0.18,-0.68,-0.23,-0.61,-0.09,
1.684,-0.30,-0.20,-0.43,-0.23,-0.61,-0.09,
1.684,-0.30,-0.20,-0.43,-0.23,-0.61,-0.09,
1.685,-0.30,-0.20,-0.43,-0.24,-0.61,-0.09,
1.685,-0.30,-0.20,-0.43,-0.24,-0.61,-0.08,
1.686,-0.30,-0.20,-0.43,-0.25,-0.60,-0.08,
1.686,-0.30,-0.20,-0.43,-0.25,-0.59,-0.08,
1.695,-0.12,-0.19,-0.16,-0.25,-0.59,-0.08,
1.696,-0.12,-0.19,-0.16,-0.25,-0.58,-0.09,
1.696,-0.12,-0.19,-0.16,-0.25,-0.56,-0.08,
1.697,-0.12,-0.19,-0.16,-0.26,-0.56,-0.08,
1.697,-0.12,-0.19,-0.16,-0.26,-0.54,-0.08,
1.703,-0.12,-0.19,-0.16,-0.26,-0.53,-0.07,
1.704,-0.14,-0.22,-0.13,-0.26,-0.53,-0.07,
1.704,-0.14,-0.22,-0.13,-0.27,-0.52,-0.07,
1.705,-0.14,-0.22,-0.13,-0.28,-0.51,-0.07,
1.705,-0.14,-0.22,-0.13,-0.28,-0.50,-0.07,
1.715,-0.14,-0.22,-0.13,-0.28,-0.50,-0.07,
1.719,-0.14,-0.22,-0.13,-0.28,-0.49,-0.07,
1.72,0.06,-0.20,-0.18,-0.28,-0.49,-0.07,
1.721,0.06,-0.20,-0.18,-0.28,-0.48,-0.07,
1.722,0.06,-0.20,-0.18,-0.28,-0.48,-0.08,
1.723,0.06,-0.20,-0.18,-0.28,-0.48,-0.08,
1.724,0.06,-0.20,-0.18,-0.28,-0.47,-0.09,
1.724,0.06,-0.20,-0.18,-0.27,-0.47,-0.09,
1.725,0.12,-0.02,-0.09,-0.27,-0.47,-0.09,
1.725,0.12,-0.02,-0.09,-0.27,-0.48,-0.09,
1.726,0.12,-0.02,-0.09,-0.27,-0.48,-0.10,
1.726,0.12,-0.02,-0.09,-0.27,-0.48,-0.11,
1.727,0.12,-0.02,-0.09,-0.26,-0.49,-0.11,
1.727,0.12,-0.02,-0.09,-0.26,-0.49,-0.12,
1.731,0.10,0.00,-0.15,-0.26,-0.49,-0.12,
1.734,0.10,0.00,-0.15,-0.26,-0.50,-0.13,
1.735,0.10,0.00,-0.15,-0.26,-0.51,-0.14,
1.736,0.10,0.00,-0.15,-0.25,-0.52,-0.14,
1.737,0.10,0.00,-0.15,-0.25,-0.52,-0.15,
1.739,0.10,0.00,-0.15,-0.26,-0.53,-0.16,
1.74,0.23,-0.01,-0.19,-0.26,-0.53,-0.16,
1.74,0.23,-0.01,-0.19,-0.25,-0.54,-0.17,
1.747,0.23,-0.01,-0.19,-0.26,-0.55,-0.17,
1.748,0.23,-0.01,-0.19,-0.25,-0.55,-0.18,
1.749,0.23,-0.01,-0.19,-0.25,-0.57,-0.18,
1.75,0.23,-0.01,-0.19,-0.26,-0.58,-0.18,
1.75,0.11,-0.00,-0.06,-0.26,-0.58,-0.18,
1.751,0.11,-0.00,-0.06,-0.26,-0.59,-0.19,
1.756,0.11,-0.00,-0.06,-0.26,-0.61,-0.19,
1.758,0.11,-0.00,-0.06,-0.26,-0.61,-0.19,
1.758,0.11,-0.00,-0.06,-0.26,-0.62,-0.19,
1.759,0.11,-0.00,-0.06,-0.27,-0.63,-0.19,
1.76,-0.05,-0.06,0.08,-0.27,-0.63,-0.19,
1.761,-0.05,-0.06,0.08,-0.27,-0.63,-0.18,
1.762,-0.05,-0.06,0.08,-0.28,-0.63,-0.18,
1.763,-0.05,-0.06,0.08,-0.28,-0.63,-0.18,
1.765,-0.05,-0.06,0.08,-0.28,-0.63,-0.17,
1.769,-0.05,-0.06,0.08,-0.29,-0.63,-0.17,
1.77,-0.13,-0.17,0.10,-0.29,-0.63,-0.17,
1.77,-0.13,-0.17,0.10,-0.29,-0.63,-0.16,
1.772,-0.13,-0.17,0.10,-0.29,-0.62,-0.15,
1.772,-0.13,-0.17,0.10,-0.30,-0.62,-0.15,
1.775,-0.13,-0.17,0.10,-0.30,-0.61,-0.14,
1.776,-0.13,-0.17,0.10,-0.30,-0.60,-0.14,
1.779,-0.19,-0.20,0.08,-0.30,-0.60,-0.14,
1.78,-0.19,-0.20,0.08,-0.30,-0.59,-0.13,
1.781,-0.19,-0.20,0.08,-0.30,-0.57,-0.12,
1.782,-0.19,-0.20,0.08,-0.31,-0.57,-0.12,
1.785,-0.19,-0.20,0.08,-0.31,-0.57,-0.12,
1.787,-0.19,-0.20,0.08,-0.31,-0.57,-0.12,
1.788,-0.01,-0.11,0.11,-0.31,-0.57,-0.12,
1.789,-0.01,-0.11,0.11,-0.31,-0.57,-0.13,
1.791,-0.01,-0.11,0.11,-0.31,-0.59,-0.14,
1.794,-0.01,-0.11,0.11,-0.31,-0.59,-0.14,
1.795,-0.01,-0.11,0.11,-0.30,-0.61,-0.15,
1.796,-0.01,-0.11,0.11,-0.30,-0.62,-0.16,
1.799,0.31,0.01,0.38,-0.30,-0.62,-0.16,
1.799,0.31,0.01,0.38,-0.29,-0.63,-0.17,
1.802,0.31,0.01,0.38,-0.28,-0.65,-0.19,
1.802,0.31,0.01,0.38,-0.27,-0.66,-0.19,
1.832,0.31,0.01,0.38,-0.26,-0.66,-0.21,
1.833,0.31,0.01,0.38,-0.25,-0.67,-0.22,
1.833,0.58,0.12,0.60,-0.25,-0.67,-0.22,
1.834,0.58,0.12,0.60,-0.24,-0.67,-0.24,
1.834,0.58,0.12,0.60,-0.22,-0.67,-0.26,
1.835,0.58,0.12,0.60,-0.22,-0.67,-0.27,
1.835,0.58,0.12,0.60,-0.21,-0.67,-0.28,
1.835,0.58,0.12,0.60,-0.20,-0.67,-0.30,
1.836,0.71,0.08,0.69,-0.20,-0.67,-0.30,
1.836,0.71,0.08,0.69,-0.19,-0.68,-0.31,
1.837,0.71,0.08,0.69,-0.17,-0.69,-0.34,
1.837,0.71,0.08,0.69,-0.17,-0.69,-0.34,
1.837,0.71,0.08,0.69,-0.16,-0.69,-0.36,
1.838,0.71,0.08,0.69,-0.15,-0.70,-0.37,
1.838,0.68,-0.07,0.68,-0.15,-0.70,-0.37,
1.839,0.68,-0.07,0.68,-0.14,-0.70,-0.38,
1.839,0.68,-0.07,0.68,-0.13,-0.71,-0.39,
1.839,0.68,-0.07,0.68,-0.12,-0.71,-0.39,
1.84,0.68,-0.07,0.68,-0.12,-0.71,-0.40,
1.84,0.68,-0.07,0.68,-0.11,-0.71,-0.40,
1.841,0.40,-0.27,0.57,-0.11,-0.71,-0.40,
1.841,0.40,-0.27,0.57,-0.11,-0.71,-0.40,
1.842,0.40,-0.27,0.57,-0.10,-0.71,-0.40,
1.842,0.40,-0.27,0.57,-0.11,-0.71,-0.40,
1.851,0.40,-0.27,0.57,-0.11,-0.71,-0.41,
1.852,0.40,-0.27,0.57,-0.11,-0.72,-0.42,
1.852,0.66,-0.78,0.25,-0.11,-0.72,-0.42,
1.852,0.66,-0.78,0.25,-0.11,-0.73,-0.43,
1.852,0.66,-0.78,0.25,-0.12,-0.73,-0.42,
1.853,0.66,-0.78,0.25,-0.12,-0.73,-0.42,
1.86,0.66,-0.78,0.25,-0.12,-0.74,-0.42,
1.86,0.66,-0.78,0.25,-0.12,-0.74,-0.41,
1.86,0.12,-0.61,0.26,-0.12,-0.74,-0.41,
1.861,0.12,-0.61,0.26,-0.11,-0.76,-0.40,
1.861,0.12,-0.61,0.26,-0.10,-0.79,-0.38,
1.863,0.12,-0.61,0.26,-0.09,-0.81,-0.38,
1.865,0.12,-0.61,0.26,-0.06,-0.94,-0.35,
1.867,0.12,-0.61,0.26,-0.00,-1.09,-0.31,
1.869,0.12,-0.16,0.67,-0.00,-1.09,-0.31,
1.869,0.12,-0.16,0.67,0.05,-1.19,-0.29,
1.873,0.12,-0.16,0.67,0.11,-1.29,-0.27,
1.874,0.12,-0.16,0.67,0.12,-1.33,-0.28,
1.875,0.12,-0.16,0.67,0.14,-1.41,-0.29,
1.877,0.12,-0.16,0.67,0.14,-1.48,-0.30,
1.879,0.60,-0.38,0.43,0.14,-1.48,-0.30,
1.879,0.60,-0.38,0.43,0.14,-1.53,-0.32,
1.881,0.60,-0.38,0.43,0.12,-1.58,-0.36,
1.883,0.60,-0.38,0.43,0.11,-1.59,-0.38,
1.886,0.60,-0.38,0.43,0.10,-1.59,-0.41,
1.887,0.60,-0.38,0.43,0.08,-1.58,-0.44,
1.889,0.53,-0.51,0.12,0.08,-1.58,-0.44,
1.889,0.53,-0.51,0.12,0.06,-1.56,-0.48,
1.891,0.53,-0.51,0.12,0.05,-1.50,-0.52,
1.892,0.53,-0.51,0.12,0.05,-1.47,-0.53,
1.895,0.53,-0.51,0.12,0.06,-1.42,-0.56,
1.896,0.53,-0.51,0.12,0.07,-1.37,-0.57,
1.898,0.28,-0.49,0.42,0.07,-1.37,-0.57,
1.899,0.28,-0.49,0.42,0.08,-1.32,-0.59,
1.901,0.28,-0.49,0.42,0.12,-1.27,-0.62,
1.904,0.28,-0.49,0.42,0.13,-1.27,-0.63,
1.905,0.28,-0.49,0.42,0.15,-1.25,-0.65,
1.907,0.28,-0.49,0.42,0.18,-1.25,-0.66,
1.908,0.51,-0.71,0.84,0.18,-1.25,-0.66,
1.908,0.51,-0.71,0.84,0.20,-1.25,-0.68,
1.911,0.51,-0.71,0.84,0.22,-1.25,-0.69,
1.912,0.51,-0.71,0.84,0.23,-1.25,-0.70,
1.914,0.51,-0.71,0.84,0.25,-1.25,-0.70,
1.919,0.51,-0.71,0.84,0.26,-1.25,-0.70,
1.919,0.13,-0.87,0.78,0.26,-1.25,-0.70,
1.919,0.13,-0.87,0.78,0.27,-1.24,-0.70,
1.922,0.13,-0.87,0.78,0.27,-1.23,-0.68,
1.923,0.13,-0.87,0.78,0.27,-1.23,-0.68,
1.925,0.13,-0.87,0.78,0.27,-1.21,-0.67,
1.927,0.13,-0.87,0.78,0.27,-1.20,-0.65,
1.929,-0.52,-0.97,0.17,0.27,-1.20,-0.65,
1.929,-0.52,-0.97,0.17,0.26,-1.19,-0.62,
1.932,-0.52,-0.97,0.17,0.25,-1.18,-0.58,
1.933,-0.52,-0.97,0.17,0.25,-1.17,-0.57,
1.935,-0.52,-0.97,0.17,0.24,-1.17,-0.54,
1.948,-0.52,-0.97,0.17,0.23,-1.17,-0.50,
1.95,-1.25,-0.86,-0.28,0.23,-1.17,-0.50,
1.951,-1.25,-0.86,-0.28,0.23,-1.28,-0.45,
1.953,-1.25,-0.86,-0.28,0.28,-1.65,-0.36,
1.954,-1.25,-0.86,-0.28,0.31,-1.73,-0.33,
1.955,-1.25,-0.86,-0.28,0.35,-1.86,-0.28,
1.956,-1.25,-0.86,-0.28,0.39,-1.97,-0.23,
1.956,-1.49,-0.82,0.03,0.39,-1.97,-0.23,
1.957,-1.49,-0.82,0.03,0.43,-2.08,-0.20,
1.96,-1.49,-0.82,0.03,0.48,-2.22,-0.16,
1.961,-1.49,-0.82,0.03,0.49,-2.27,-0.15,
1.961,-1.49,-0.82,0.03,0.50,-2.34,-0.14,
1.961,-1.49,-0.82,0.03,0.50,-2.36,-0.13,
1.961,-1.63,-0.51,-0.12,0.50,-2.36,-0.13,
1.962,-1.63,-0.51,-0.12,0.47,-2.33,-0.12,
1.962,-1.63,-0.51,-0.12,0.37,-2.16,-0.12,
1.971,-1.63,-0.51,-0.12,0.33,-2.07,-0.12,
1.972,-1.63,-0.51,-0.12,0.24,-1.88,-0.12,
1.973,-1.63,-0.51,-0.12,0.17,-1.70,-0.12,
1.973,-1.75,-0.19,-0.90,0.17,-1.70,-0.12,
1.973,-1.75,-0.19,-0.90,0.13,-1.53,-0.12,
2.003,-1.75,-0.19,-0.90,0.11,-1.33,-0.11,
2.004,-1.75,-0.19,-0.90,0.12,-1.28,-0.10,
2.004,-1.75,-0.19,-0.90,0.15,-1.20,-0.09,
2.004,-1.75,-0.19,-0.90,0.19,-1.15,-0.06,
2.005,-1.29,-0.32,0.24,0.19,-1.15,-0.06,
2.005,-1.29,-0.32,0.24,0.25,-1.14,-0.03,
2.006,-1.29,-0.32,0.24,0.33,-1.18,0.00,
2.006,-1.29,-0.32,0.24,0.36,-1.20,0.02,
2.007,-1.29,-0.32,0.24,0.42,-1.25,0.04,
2.007,-1.29,-0.32,0.24,0.47,-1.33,0.05,
2.007,-0.74,-0.54,0.80,0.47,-1.33,0.05,
2.008,-0.74,-0.54,0.80,0.52,-1.40,0.05,
2.008,-0.74,-0.54,0.80,0.59,-1.54,0.04,
2.009,-0.74,-0.54,0.80,0.62,-1.59,0.04,
2.009,-0.74,-0.54,0.80,0.66,-1.69,0.03,
2.009,-0.74,-0.54,0.80,0.70,-1.78,0.02,
2.01,-0.39,-0.80,0.54,0.70,-1.78,0.02,
2.01,-0.39,-0.80,0.54,0.74,-1.88,0.01,
2.011,-0.39,-0.80,0.54,0.81,-2.01,-0.00,
2.011,-0.39,-0.80,0.54,0.83,-2.05,-0.01,
2.012,-0.39,-0.80,0.54,0.88,-2.13,-0.01,
2.012,-0.39,-0.80,0.54,0.92,-2.21,-0.01,
2.012,-0.87,-0.70,0.50,0.92,-2.21,-0.01,
2.013,-0.87,-0.70,0.50,0.96,-2.29,-0.00,
2.013,-0.87,-0.70,0.50,1.03,-2.40,0.02,
2.014,-0.87,-0.70,0.50,1.05,-2.43,0.03,
2.014,-0.87,-0.70,0.50,1.09,-2.50,0.05,
2.019,-0.87,-0.70,0.50,1.13,-2.58,0.07,
2.02,-1.29,-0.45,0.62,1.13,-2.58,0.07,
2.021,-1.29,-0.45,0.62,1.18,-2.64,0.09,
2.03,-1.29,-0.45,0.62,1.25,-2.73,0.12,
2.031,-1.29,-0.45,0.62,1.28,-2.75,0.13,
2.032,-1.29,-0.45,0.62,1.33,-2.80,0.15,
2.032,-1.29,-0.45,0.62,1.38,-2.83,0.17,
2.032,-1.54,-0.11,1.03,1.38,-2.83,0.17,
2.033,-1.54,-0.11,1.03,1.43,-2.86,0.19,
2.033,-1.54,-0.11,1.03,1.51,-2.89,0.21,
2.033,-1.54,-0.11,1.03,1.53,-2.90,0.21,
2.037,-1.54,-0.11,1.03,1.57,-2.92,0.22,
2.037,-1.54,-0.11,1.03,1.61,-2.94,0.23,
2.04,-1.43,0.12,0.92,1.61,-2.94,0.23,
2.04,-1.43,0.12,0.92,1.65,-2.96,0.24,
2.042,-1.43,0.12,0.92,1.69,-2.99,0.24,
2.043,-1.43,0.12,0.92,1.70,-3.00,0.24,
2.044,-1.43,0.12,0.92,1.72,-3.02,0.24,
2.047,-1.43,0.12,0.92,1.74,-3.03,0.24,
2.049,-1.31,0.17,0.54,1.74,-3.03,0.24,
2.05,-1.31,0.17,0.54,1.75,-3.05,0.24,
2.051,-1.31,0.17,0.54,1.75,-3.05,0.23,
2.053,-1.31,0.17,0.54,1.75,-3.05,0.23,
2.054,-1.31,0.17,0.54,1.74,-3.05,0.23,
2.056,-1.31,0.17,0.54,1.73,-3.03,0.22,
2.058,-0.99,0.13,-0.20,1.73,-3.03,0.22,
2.059,-0.99,0.13,-0.20,1.71,-3.01,0.22,
2.061,-0.99,0.13,-0.20,1.67,-2.97,0.22,
2.062,-0.99,0.13,-0.20,1.66,-2.96,0.22,
2.064,-0.99,0.13,-0.20,1.63,-2.92,0.23,
2.067,-0.99,0.13,-0.20,1.60,-2.88,0.23,
2.073,-0.76,0.14,-0.86,1.60,-2.88,0.23,
2.073,-0.76,0.14,-0.86,1.57,-2.83,0.25,
2.074,-0.76,0.14,-0.86,1.51,-2.76,0.27,
2.074,-0.76,0.14,-0.86,1.50,-2.73,0.28,
2.074,-0.76,0.14,-0.86,1.46,-2.66,0.29,
2.076,-0.76,0.14,-0.86,1.42,-2.59,0.30,
2.078,-0.77,0.24,-1.20,1.42,-2.59,0.30,
2.079,-0.77,0.24,-1.20,1.38,-2.52,0.32,
2.081,-0.77,0.24,-1.20,1.32,-2.41,0.33,
2.083,-0.77,0.24,-1.20,1.30,-2.37,0.34,
2.084,-0.77,0.24,-1.20,1.26,-2.31,0.34,
2.093,-0.77,0.24,-1.20,1.21,-2.25,0.34,
2.093,-0.87,0.26,-1.42,1.21,-2.25,0.34,
2.094,-0.87,0.26,-1.42,1.16,-2.19,0.34,
2.095,-0.87,0.26,-1.42,1.09,-2.13,0.33,
2.095,-0.87,0.26,-1.42,1.07,-2.11,0.33,
2.095,-0.87,0.26,-1.42,1.02,-2.07,0.32,
2.096,-0.87,0.26,-1.42,0.97,-2.04,0.31,
2.101,-1.03,0.20,-1.55,0.97,-2.04,0.31,
2.101,-1.03,0.20,-1.55,0.92,-2.02,0.31,
2.102,-1.03,0.20,-1.55,0.85,-2.00,0.29,
2.115,-1.03,0.20,-1.55,0.82,-2.00,0.29,
2.116,-1.03,0.20,-1.55,0.78,-2.00,0.28,
2.116,-1.03,0.20,-1.55,0.73,-2.00,0.27,
2.117,-1.35,0.28,-1.67,0.73,-2.00,0.27,
2.117,-1.35,0.28,-1.67,0.69,-2.01,0.27,
2.118,-1.35,0.28,-1.67,0.63,-2.03,0.26,
2.118,-1.35,0.28,-1.67,0.61,-2.05,0.25,
2.119,-1.35,0.28,-1.67,0.58,-2.07,0.25,
2.119,-1.35,0.28,-1.67,0.55,-2.10,0.25,
2.12,-1.93,0.32,-1.54,0.55,-2.10,0.25,
2.12,-1.93,0.32,-1.54,0.53,-2.13,0.25,
2.129,-1.93,0.32,-1.54,0.49,-2.18,0.26,
2.131,-1.93,0.32,-1.54,0.48,-2.19,0.26,
2.132,-1.93,0.32,-1.54,0.46,-2.24,0.27,
2.132,-1.93,0.32,-1.54,0.43,-2.28,0.28,
2.133,-2.55,0.35,-1.55,0.43,-2.28,0.28,
2.133,-2.55,0.35,-1.55,0.41,-2.33,0.29,
2.134,-2.55,0.35,-1.55,0.39,-2.40,0.30,
2.135,-2.55,0.35,-1.55,0.38,-2.43,0.30,
2.136,-2.55,0.35,-1.55,0.36,-2.48,0.31,
2.137,-2.55,0.35,-1.55,0.35,-2.52,0.33,
2.174,-2.87,0.27,-1.66,0.35,-2.52,0.33,
2.175,-2.87,0.27,-1.66,0.33,-2.57,0.33,
2.175,-2.87,0.27,-1.66,0.32,-2.64,0.35,
2.176,-2.87,0.27,-1.66,0.31,-2.66,0.36,
2.177,-2.87,0.27,-1.66,0.30,-2.71,0.37,
2.178,-2.87,0.27,-1.66,0.29,-2.74,0.38,
2.181,-3.03,0.29,-1.68,0.29,-2.74,0.38,
2.182,-3.03,0.29,-1.68,0.29,-2.78,0.40,
2.183,-3.03,0.29,-1.68,0.28,-2.83,0.42,
2.184,-3.03,0.29,-1.68,0.28,-2.85,0.43,
2.184,-3.03,0.29,-1.68,0.28,-2.88,0.44,
2.185,-3.03,0.29,-1.68,0.27,-2.91,0.46,
2.185,-2.95,0.19,-1.67,0.27,-2.91,0.46,
2.186,-2.95,0.19,-1.67,0.28,-2.94,0.48,
2.189,-2.95,0.19,-1.67,0.28,-2.98,0.50,
2.189,-2.95,0.19,-1.67,0.28,-2.99,0.51,
2.19,-2.95,0.19,-1.67,0.28,-3.02,0.52,
2.19,-2.95,0.19,-1.67,0.28,-3.04,0.53,
2.19,-2.88,0.22,-1.54,0.28,-3.04,0.53,
2.191,-2.88,0.22,-1.54,0.28,-3.07,0.53,
2.191,-2.88,0.22,-1.54,0.29,-3.10,0.54,
2.191,-2.88,0.22,-1.54,0.29,-3.12,0.54,
2.192,-2.88,0.22,-1.54,0.29,-3.14,0.54,
2.192,-2.88,0.22,-1.54,0.30,-3.16,0.55,
2.192,-2.65,0.26,-1.37,0.30,-3.16,0.55,
2.193,-2.65,0.26,-1.37,0.30,-3.19,0.55,
2.193,-2.65,0.26,-1.37,0.31,-3.22,0.55,
2.193,-2.65,0.26,-1.37,0.31,-3.23,0.55,
2.194,-2.65,0.26,-1.37,0.32,-3.25,0.55,
2.194,-2.65,0.26,-1.37,0.32,-3.27,0.55,
2.195,-2.47,0.33,-1.13,0.32,-3.27,0.55,
2.195,-2.47,0.33,-1.13,0.33,-3.29,0.56,
2.195,-2.47,0.33,-1.13,0.34,-3.32,0.56,
2.196,-2.47,0.33,-1.13,0.34,-3.33,0.56,
2.196,-2.47,0.33,-1.13,0.36,-3.36,0.57,
2.196,-2.47,0.33,-1.13,0.36,-3.37,0.57,
2.201,-2.52,0.25,-0.87,0.36,-3.37,0.57,
2.202,-2.52,0.25,-0.87,0.37,-3.38,0.58,
2.202,-2.52,0.25,-0.87,0.39,-3.40,0.60,
2.203,-2.52,0.25,-0.87,0.39,-3.41,0.60,
2.207,-2.52,0.25,-0.87,0.40,-3.42,0.61,
2.207,-2.52,0.25,-0.87,0.41,-3.43,0.61,
2.213,-2.69,0.21,-0.67,0.41,-3.43,0.61,
2.214,-2.69,0.21,-0.67,0.41,-3.43,0.62,
2.214,-2.69,0.21,-0.67,0.41,-3.43,0.64,
2.214,-2.69,0.21,-0.67,0.41,-3.43,0.64,
2.215,-2.69,0.21,-0.67,0.41,-3.42,0.65,
2.217,-2.69,0.21,-0.67,0.40,-3.42,0.67,
2.22,-2.75,0.22,-0.90,0.40,-3.42,0.67,
2.225,-2.75,0.22,-0.90,0.39,-3.40,0.68,
2.225,-2.75,0.22,-0.90,0.37,-3.38,0.70,
2.225,-2.75,0.22,-0.90,0.36,-3.36,0.71,
2.226,-2.75,0.22,-0.90,0.33,-3.34,0.72,
2.229,-2.75,0.22,-0.90,0.31,-3.31,0.74,
2.229,-2.94,0.31,-1.33,0.31,-3.31,0.74,
2.23,-2.94,0.31,-1.33,0.28,-3.28,0.75,
2.234,-2.94,0.31,-1.33,0.24,-3.24,0.78,
2.234,-2.94,0.31,-1.33,0.23,-3.23,0.79,
2.235,-2.94,0.31,-1.33,0.20,-3.21,0.80,
2.24,-2.94,0.31,-1.33,0.18,-3.20,0.82,
2.242,-3.19,0.17,-1.39,0.18,-3.20,0.82,
2.243,-3.19,0.17,-1.39,0.16,-3.20,0.84,
2.243,-3.19,0.17,-1.39,0.13,-3.20,0.87,
2.244,-3.19,0.17,-1.39,0.12,-3.20,0.89,
2.248,-3.19,0.17,-1.39,0.10,-3.25,0.92,
2.249,-3.19,0.17,-1.39,0.08,-3.32,0.96,
2.263,-3.54,-0.20,-1.33,0.08,-3.32,0.96,
2.266,-3.54,-0.20,-1.33,0.07,-3.35,0.99,
2.267,-3.54,-0.20,-1.33,0.06,-3.35,1.04,
2.268,-3.54,-0.20,-1.33,0.06,-3.34,1.05,
2.268,-3.54,-0.20,-1.33,0.05,-3.32,1.08,
2.271,-3.54,-0.20,-1.33,0.05,-3.29,1.11,
2.271,-3.96,0.01,-0.64,0.05,-3.29,1.11,
2.272,-3.96,0.01,-0.64,0.05,-3.25,1.14,
2.274,-3.96,0.01,-0.64,0.05,-3.19,1.18,
2.277,-3.96,0.01,-0.64,0.05,-3.16,1.20,
2.277,-3.96,0.01,-0.64,0.05,-3.13,1.24,
2.277,-3.96,0.01,-0.64,0.04,-3.09,1.27,
2.278,-3.67,0.09,-0.07,0.04,-3.09,1.27,
2.278,-3.67,0.09,-0.07,0.04,-3.06,1.31,
2.279,-3.67,0.09,-0.07,0.02,-3.01,1.36,
2.279,-3.67,0.09,-0.07,0.02,-2.99,1.38,
2.279,-3.67,0.09,-0.07,0.01,-2.95,1.41,
2.28,-3.67,0.09,-0.07,-0.00,-2.91,1.43,
2.28,-3.40,-0.16,-0.38,-0.00,-2.91,1.43,
2.28,-3.40,-0.16,-0.38,-0.02,-2.87,1.45,
2.282,-3.40,-0.16,-0.38,-0.03,-2.82,1.47,
2.283,-3.40,-0.16,-0.38,-0.04,-2.80,1.48,
2.289,-3.40,-0.16,-0.38,-0.05,-2.77,1.48,
2.291,-3.40,-0.16,-0.38,-0.06,-2.74,1.49,
2.291,-3.45,0.07,-0.40,-0.06,-2.74,1.49,
2.292,-3.45,0.07,-0.40,-0.06,-2.73,1.49,
2.293,-3.45,0.07,-0.40,-0.06,-2.71,1.48,
2.293,-3.45,0.07,-0.40,-0.06,-2.70,1.48,
2.295,-3.45,0.07,-0.40,-0.05,-2.70,1.48,
2.296,-3.45,0.07,-0.40,-0.04,-2.70,1.48,
2.299,-3.32,0.50,0.16,-0.04,-2.70,1.48,
2.299,-3.32,0.50,0.16,-0.04,-2.70,1.49,
2.302,-3.32,0.50,0.16,-0.02,-2.70,1.49,
2.304,-3.32,0.50,0.16,-0.02,-2.71,1.50,
2.343,-3.32,0.50,0.16,-0.01,-2.71,1.50,
2.343,-3.32,0.50,0.16,-0.00,-2.72,1.51,
2.344,-3.38,0.81,0.52,-0.00,-2.72,1.51,
2.345,-3.38,0.81,0.52,0.01,-2.72,1.52,
2.345,-3.38,0.81,0.52,0.01,-2.73,1.53,
2.346,-3.38,0.81,0.52,0.02,-2.73,1.54,
2.346,-3.38,0.81,0.52,0.02,-2.73,1.55,
2.347,-3.38,0.81,0.52,0.02,-2.73,1.56,
2.348,-3.53,0.77,0.22,0.02,-2.73,1.56,
2.348,-3.53,0.77,0.22,0.02,-2.72,1.57,
2.349,-3.53,0.77,0.22,0.02,-2.72,1.58,
2.349,-3.53,0.77,0.22,0.01,-2.72,1.59,
2.35,-3.53,0.77,0.22,0.01,-2.71,1.60,
2.351,-3.53,0.77,0.22,0.01,-2.70,1.61,
2.351,-3.65,0.71,-0.04,0.01,-2.70,1.61,
2.352,-3.65,0.71,-0.04,0.01,-2.69,1.63,
2.352,-3.65,0.71,-0.04,-0.00,-2.68,1.65,
2.353,-3.65,0.71,-0.04,-0.00,-2.68,1.66,
2.354,-3.65,0.71,-0.04,0.00,-2.66,1.68,
2.354,-3.65,0.71,-0.04,-0.00,-2.64,1.70,
2.355,-3.53,0.56,0.03,-0.00,-2.64,1.70,
2.355,-3.53,0.56,0.03,-0.00,-2.62,1.71,
2.358,-3.53,0.56,0.03,-0.00,-2.59,1.73,
2.359,-3.53,0.56,0.03,0.00,-2.58,1.73,
2.359,-3.53,0.56,0.03,0.01,-2.57,1.74,
2.36,-3.53,0.56,0.03,0.01,-2.56,1.75,
2.36,-3.46,0.53,0.46,0.01,-2.56,1.75,
2.361,-3.46,0.53,0.46,0.02,-2.56,1.75,
2.361,-3.46,0.53,0.46,0.04,-2.57,1.76,
2.362,-3.46,0.53,0.46,0.05,-2.58,1.77,
2.362,-3.46,0.53,0.46,0.07,-2.60,1.77,
2.363,-3.46,0.53,0.46,0.09,-2.63,1.77,
2.363,-3.45,0.50,0.95,0.09,-2.63,1.77,
2.364,-3.45,0.50,0.95,0.12,-2.66,1.78,
2.364,-3.45,0.50,0.95,0.16,-2.71,1.79,
2.364,-3.45,0.50,0.95,0.18,-2.73,1.79,
2.369,-3.45,0.50,0.95,0.22,-2.77,1.80,
2.37,-3.45,0.50,0.95,0.26,-2.80,1.81,
2.371,-3.58,0.66,1.59,0.26,-2.80,1.81,
2.371,-3.58,0.66,1.59,0.31,-2.83,1.82,
2.372,-3.58,0.66,1.59,0.38,-2.88,1.83,
2.372,-3.58,0.66,1.59,0.41,-2.90,1.83,
2.376,-3.58,0.66,1.59,0.46,-2.93,1.84,
2.377,-3.58,0.66,1.59,0.52,-2.96,1.85,
2.38,-3.52,0.83,1.94,0.52,-2.96,1.85,
2.381,-3.52,0.83,1.94,0.57,-2.99,1.86,
2.381,-3.52,0.83,1.94,0.65,-3.02,1.86,
2.382,-3.52,0.83,1.94,0.67,-3.03,1.86,
2.39,-3.52,0.83,1.94,0.73,-3.05,1.86,
2.392,-3.52,0.83,1.94,0.78,-3.06,1.85,
2.392,-3.16,1.18,1.99,0.78,-3.06,1.85,
2.392,-3.16,1.18,1.99,0.83,-3.07,1.84,
2.395,-3.16,1.18,1.99,0.90,-3.08,1.82,
2.396,-3.16,1.18,1.99,0.92,-3.08,1.81,
2.397,-3.16,1.18,1.99,0.96,-3.08,1.80,
2.397,-3.16,1.18,1.99,1.00,-3.07,1.78,
2.399,-2.73,1.53,1.58,1.00,-3.07,1.78,
2.4,-2.73,1.53,1.58,1.04,-3.07,1.75,
2.413,-2.73,1.53,1.58,1.09,-3.05,1.72,
2.414,-2.73,1.53,1.58,1.11,-3.05,1.70,
2.414,-2.73,1.53,1.58,1.14,-3.04,1.68,
2.415,-2.73,1.53,1.58,1.16,-3.03,1.65,
2.415,-2.38,1.87,1.07,1.16,-3.03,1.65,
2.415,-2.38,1.87,1.07,1.18,-3.02,1.61,
2.416,-2.38,1.87,1.07,1.20,-3.00,1.57,
2.416,-2.38,1.87,1.07,1.20,-2.99,1.55,
2.416,-2.38,1.87,1.07,1.21,-2.99,1.51,
2.416,-2.38,1.87,1.07,1.22,-2.97,1.48,
2.433,-2.32,2.12,0.61,1.22,-2.97,1.48,
2.434,-2.32,2.12,0.61,1.23,-2.96,1.45,
2.434,-2.32,2.12,0.61,1.23,-2.95,1.40,
2.435,-2.32,2.12,0.61,1.23,-2.94,1.39,
2.435,-2.32,2.12,0.61,1.23,-2.93,1.36,
2.435,-2.32,2.12,0.61,1.23,-2.93,1.33,
2.436,-2.89,2.49,0.52,1.23,-2.93,1.33,
2.436,-2.89,2.49,0.52,1.23,-2.92,1.31,
2.436,-2.89,2.49,0.52,1.23,-2.92,1.27,
2.436,-2.89,2.49,0.52,1.23,-2.92,1.26,
2.437,-2.89,2.49,0.52,1.23,-2.93,1.25,
2.438,-2.89,2.49,0.52,1.22,-2.94,1.23,
2.44,-3.66,2.64,0.68,1.22,-2.94,1.23,
2.44,-3.66,2.64,0.68,1.21,-2.95,1.22,
2.442,-3.66,2.64,0.68,1.20,-2.97,1.21,
2.443,-3.66,2.64,0.68,1.20,-2.98,1.21,
2.444,-3.66,2.64,0.68,1.19,-3.00,1.21,
2.447,-3.66,2.64,0.68,1.17,-3.01,1.21,
2.448,-4.45,3.02,0.89,1.17,-3.01,1.21,
2.45,-4.45,3.02,0.89,1.16,-3.01,1.21,
2.454,-4.45,3.02,0.89,1.14,-3.02,1.22,
2.458,-4.45,3.02,0.89,1.13,-3.01,1.22,
2.459,-4.45,3.02,0.89,1.10,-2.99,1.22,
2.46,-4.37,2.85,0.98,1.10,-2.99,1.22,
2.461,-4.37,2.85,0.98,1.08,-2.97,1.22,
2.462,-4.37,2.85,0.98,1.08,-2.97,1.22,
2.462,-4.37,2.85,0.98,1.05,-2.93,1.20,
2.463,-4.37,2.85,0.98,1.04,-2.92,1.19,
2.465,-4.37,2.85,0.98,1.03,-2.88,1.17,
2.469,-4.37,2.85,0.98,1.02,-2.84,1.14,
2.476,-3.86,2.30,1.12,1.02,-2.84,1.14,
2.477,-3.86,2.30,1.12,1.01,-2.80,1.11,
2.508,-3.86,2.30,1.12,1.00,-2.74,1.06,
2.508,-3.86,2.30,1.12,1.00,-2.72,1.04,
2.509,-3.86,2.30,1.12,1.00,-2.68,1.00,
2.509,-3.86,2.30,1.12,1.02,-2.64,0.96,
2.51,-3.56,1.57,1.79,1.02,-2.64,0.96,
2.51,-3.56,1.57,1.79,1.03,-2.60,0.92,
2.51,-3.56,1.57,1.79,1.07,-2.57,0.87,
2.511,-3.56,1.57,1.79,1.09,-2.56,0.86,
2.511,-3.56,1.57,1.79,1.12,-2.56,0.82,
2.512,-3.56,1.57,1.79,1.16,-2.56,0.80,
2.512,-4.05,1.50,2.87,1.16,-2.56,0.80,
2.512,-4.05,1.50,2.87,1.21,-2.56,0.77,
2.513,-4.05,1.50,2.87,1.28,-2.59,0.73,
2.513,-4.05,1.50,2.87,1.31,-2.60,0.72,
2.514,-4.05,1.50,2.87,1.36,-2.63,0.70,
2.514,-4.05,1.50,2.87,1.42,-2.67,0.68,
2.515,-4.56,1.63,3.30,1.42,-2.67,0.68,
2.515,-4.56,1.63,3.30,1.47,-2.70,0.66,
2.516,-4.56,1.63,3.30,1.55,-2.76,0.62,
2.516,-4.56,1.63,3.30,1.57,-2.78,0.61,
2.517,-4.56,1.63,3.30,1.62,-2.82,0.58,
2.517,-4.56,1.63,3.30,1.67,-2.85,0.56,
2.517,-5.00,2.03,3.16,1.67,-2.85,0.56,
2.518,-5.00,2.03,3.16,1.71,-2.88,0.53,
2.518,-5.00,2.03,3.16,1.77,-2.92,0.49,
2.519,-5.00,2.03,3.16,1.79,-2.93,0.48,
2.519,-5.00,2.03,3.16,1.82,-2.95,0.46,
2.519,-5.00,2.03,3.16,1.86,-2.96,0.44,
2.519,-5.81,2.36,2.69,1.86,-2.96,0.44,
2.52,-5.81,2.36,2.69,1.89,-2.98,0.42,
2.524,-5.81,2.36,2.69,1.93,-3.00,0.41,
2.525,-5.81,2.36,2.69,1.95,-3.00,0.40,
2.525,-5.81,2.36,2.69,1.98,-3.02,0.40,
2.529,-5.81,2.36,2.69,2.01,-3.03,0.39,
2.529,-6.84,3.00,2.62,2.01,-3.03,0.39,
2.53,-6.84,3.00,2.62,2.05,-3.04,0.39,
2.531,-6.84,3.00,2.62,2.12,-3.07,0.37,
2.532,-6.84,3.00,2.62,2.14,-3.08,0.37,
2.539,-6.84,3.00,2.62,2.18,-3.11,0.36,
2.54,-6.84,3.00,2.62,2.24,-3.16,0.35,
2.54,-7.82,3.14,3.10,2.24,-3.16,0.35,
2.54,-7.82,3.14,3.10,2.29,-3.21,0.34,
2.542,-7.82,3.14,3.10,2.38,-3.31,0.33,
2.545,-7.82,3.14,3.10,2.45,-3.38,0.33,
2.546,-7.82,3.14,3.10,2.52,-3.46,0.32,
2.546,-7.82,3.14,3.10,2.56,-3.51,0.31,
2.549,-8.59,4.12,4.19,2.56,-3.51,0.31,
2.549,-8.59,4.12,4.19,2.63,-3.61,0.30,
2.552,-8.59,4.12,4.19,2.75,-3.78,0.27,
2.553,-8.59,4.12,4.19,2.78,-3.84,0.26,
2.555,-8.59,4.12,4.19,2.86,-3.98,0.22,
2.556,-8.59,4.12,4.19,2.93,-4.12,0.19,
2.559,-8.53,5.16,4.61,2.93,-4.12,0.19,
2.56,-8.53,5.16,4.61,2.99,-4.27,0.16,
2.561,-8.53,5.16,4.61,3.08,-4.48,0.09,
2.562,-8.53,5.16,4.61,3.11,-4.55,0.07,
2.565,-8.53,5.16,4.61,3.15,-4.68,0.02,
2.566,-8.53,5.16,4.61,3.19,-4.80,-0.04,
2.569,-8.26,5.86,4.12,3.19,-4.80,-0.04,
2.569,-8.26,5.86,4.12,3.22,-4.91,-0.10,
2.571,-8.26,5.86,4.12,3.26,-5.05,-0.21,
2.573,-8.26,5.86,4.12,3.27,-5.09,-0.25,
2.574,-8.26,5.86,4.12,3.27,-5.16,-0.34,
2.576,-8.26,5.86,4.12,3.28,-5.22,-0.43,
2.579,-7.38,6.05,3.51,3.28,-5.22,-0.43,
2.58,-7.38,6.05,3.51,3.27,-5.26,-0.52,
2.581,-7.38,6.05,3.51,3.23,-5.29,-0.68,
2.583,-7.38,6.05,3.51,3.22,-5.29,-0.74,
2.584,-7.38,6.05,3.51,3.18,-5.29,-0.86,
2.587,-7.38,6.05,3.51,3.13,-5.27,-0.97,
2.589,-6.36,6.85,2.97,3.13,-5.27,-0.97,
2.59,-6.36,6.85,2.97,3.08,-5.23,-1.09,
2.591,-6.36,6.85,2.97,2.97,-5.14,-1.28,
2.593,-6.36,6.85,2.97,2.88,-5.07,-1.41,
2.594,-6.36,6.85,2.97,2.83,-5.03,-1.48,
2.597,-6.36,6.85,2.97,2.73,-4.94,-1.61,
2.599,-5.79,7.23,2.22,2.73,-4.94,-1.61,
2.599,-5.79,7.23,2.22,2.61,-4.85,-1.74,
2.602,-5.79,7.23,2.22,2.42,-4.70,-1.93,
2.603,-5.79,7.23,2.22,2.35,-4.65,-1.99,
2.604,-5.79,7.23,2.22,2.20,-4.55,-2.11,
2.607,-5.79,7.23,2.22,2.04,-4.46,-2.23,
2.609,-6.63,7.66,0.91,2.04,-4.46,-2.23,
2.609,-6.63,7.66,0.91,1.87,-4.38,-2.33,
2.611,-6.63,7.66,0.91,1.59,-4.26,-2.47,
2.614,-6.63,7.66,0.91,1.49,-4.22,-2.51,
2.614,-6.63,7.66,0.91,1.29,-4.16,-2.58,
2.617,-6.63,7.66,0.91,1.09,-4.10,-2.63,
2.619,-8.81,7.38,-0.39,1.09,-4.10,-2.63,
2.62,-8.81,7.38,-0.39,0.88,-4.04,-2.67,
2.622,-8.81,7.38,-0.39,0.57,-3.96,-2.70,
2.623,-8.81,7.38,-0.39,0.47,-3.94,-2.70,
2.624,-8.81,7.38,-0.39,0.26,-3.90,-2.70,
2.627,-8.81,7.38,-0.39,0.05,-3.89,-2.68,
2.628,-11.26,6.21,-0.96,0.05,-3.89,-2.68,
2.63,-11.26,6.21,-0.96,-0.15,-3.89,-2.66,
2.631,-11.26,6.21,-0.96,-0.45,-3.93,-2.62,
2.633,-11.26,6.21,-0.96,-0.55,-3.95,-2.60,
2.642,-11.26,6.21,-0.96,-0.74,-4.00,-2.56,
2.647,-11.26,6.21,-0.96,-0.93,-4.06,-2.51,
2.685,-11.46,4.03,-1.13,-0.93,-4.06,-2.51,
2.689,-11.46,4.03,-1.13,-1.10,-4.13,-2.45,
2.69,-11.46,4.03,-1.13,-1.35,-4.25,-2.37,
2.691,-11.46,4.03,-1.13,-1.51,-4.35,-2.31,
2.691,-11.46,4.03,-1.13,-1.59,-4.41,-2.28,
2.692,-11.46,4.03,-1.13,-1.72,-4.52,-2.22,
2.693,-9.22,1.90,-1.24,-1.72,-4.52,-2.22,
2.693,-9.22,1.90,-1.24,-1.86,-4.65,-2.17,
2.694,-9.22,1.90,-1.24,-2.03,-4.87,-2.12,
2.694,-9.22,1.90,-1.24,-2.08,-4.94,-2.11,
2.695,-9.22,1.90,-1.24,-2.17,-5.10,-2.09,
2.695,-9.22,1.90,-1.24,-2.25,-5.26,-2.07,
2.695,-5.08,-0.10,-0.28,-2.25,-5.26,-2.07,
2.696,-5.08,-0.10,-0.28,-2.32,-5.43,-2.08,
2.696,-5.08,-0.10,-0.28,-2.39,-5.69,-2.10,
2.697,-5.08,-0.10,-0.28,-2.43,-5.86,-2.13,
2.697,-5.08,-0.10,-0.28,-2.44,-5.95,-2.14,
2.698,-5.08,-0.10,-0.28,-2.46,-6.11,-2.19,
2.698,0.15,-1.44,1.15,-2.46,-6.11,-2.19,
2.699,0.15,-1.44,1.15,-2.46,-6.28,-2.26,
2.699,0.15,-1.44,1.15,-2.43,-6.52,-2.38,
2.7,0.15,-1.44,1.15,-2.41,-6.60,-2.43,
2.7,0.15,-1.44,1.15,-2.36,-6.75,-2.54,
2.701,0.15,-1.44,1.15,-2.29,-6.90,-2.67,
2.701,4.94,-2.58,3.17,-2.29,-6.90,-2.67,
2.702,4.94,-2.58,3.17,-2.21,-7.03,-2.82,
2.702,4.94,-2.58,3.17,-2.07,-7.19,-3.05,
2.703,4.94,-2.58,3.17,-1.95,-7.28,-3.21,
2.703,4.94,-2.58,3.17,-1.89,-7.32,-3.29,
2.704,4.94,-2.58,3.17,-1.76,-7.38,-3.46,
2.704,7.85,-2.90,5.73,-1.76,-7.38,-3.46,
2.705,7.85,-2.90,5.73,-1.61,-7.42,-3.63,
2.705,7.85,-2.90,5.73,-1.38,-7.46,-3.89,
2.706,7.85,-2.90,5.73,-1.22,-7.47,-4.06,
2.706,7.85,-2.90,5.73,-1.13,-7.48,-4.14,
2.707,7.85,-2.90,5.73,-0.97,-7.51,-4.31,
2.707,7.69,-3.11,7.24,-0.97,-7.51,-4.31,
2.708,7.69,-3.11,7.24,-0.80,-7.53,-4.47,
2.708,7.69,-3.11,7.24,-0.55,-7.57,-4.71,
2.709,7.69,-3.11,7.24,-0.38,-7.59,-4.86,
2.71,7.69,-3.11,7.24,-0.29,-7.60,-4.93,
2.71,7.69,-3.11,7.24,-0.11,-7.60,-5.04,
2.711,7.05,-6.24,7.03,-0.11,-7.60,-5.04,
2.711,7.05,-6.24,7.03,0.09,-7.58,-5.14,
2.711,7.05,-6.24,7.03,0.41,-7.51,-5.22,
2.716,7.05,-6.24,7.03,0.52,-7.48,-5.23,
2.717,7.05,-6.24,7.03,0.74,-7.40,-5.22,
2.717,7.05,-6.24,7.03,0.96,-7.32,-5.17,
2.718,4.50,-11.35,6.41,0.96,-7.32,-5.17,
2.719,4.50,-11.35,6.41,1.18,-7.23,-5.07,
2.721,4.50,-11.35,6.41,1.46,-7.10,-4.83,
2.723,4.50,-11.35,6.41,1.60,-7.02,-4.60,
2.724,4.50,-11.35,6.41,1.66,-6.97,-4.47,
2.726,4.50,-11.35,6.41,1.75,-6.87,-4.17,
2.73,-1.05,-15.24,2.15,1.75,-6.87,-4.17,
2.73,-1.05,-15.24,2.15,1.79,-6.76,-3.83,
2.731,-1.05,-15.24,2.15,1.76,-6.55,-3.25,
2.734,-1.05,-15.24,2.15,1.72,-6.46,-3.04,
2.742,-1.05,-15.24,2.15,1.61,-6.24,-2.61,
2.743,-1.05,-15.24,2.15,1.44,-5.98,-2.15,
2.744,-4.87,-14.69,-6.82,1.44,-5.98,-2.15,
2.745,-4.87,-14.69,-6.82,1.20,-5.67,-1.68,
2.746,-4.87,-14.69,-6.82,0.74,-5.14,-0.97,
2.746,-4.87,-14.69,-6.82,0.36,-4.74,-0.51,
2.746,-4.87,-14.69,-6.82,0.15,-4.53,-0.28,
2.747,-4.87,-14.69,-6.82,-0.29,-4.07,0.15,
2.75,-4.51,-9.65,-16.76,-0.29,-4.07,0.15,
2.751,-4.51,-9.65,-16.76,-0.77,-3.58,0.56,
2.751,-4.51,-9.65,-16.76,-1.51,-2.75,1.12,
2.754,-4.51,-9.65,-16.76,-1.77,-2.45,1.29,
2.755,-4.51,-9.65,-16.76,-2.28,-1.81,1.61,
2.757,-4.51,-9.65,-16.76,-2.79,-1.13,1.91,
2.759,0.35,-2.70,-20.99,-2.79,-1.13,1.91,
2.759,0.35,-2.70,-20.99,-3.28,-0.39,2.19,
2.762,0.35,-2.70,-20.99,-3.99,0.79,2.57,
2.763,0.35,-2.70,-20.99,-4.21,1.20,2.69,
2.764,0.35,-2.70,-20.99,-4.61,2.04,2.90,
2.767,0.35,-2.70,-20.99,-4.96,2.87,3.08,
2.768,5.83,-0.83,-17.50,-4.96,2.87,3.08,
2.77,5.83,-0.83,-17.50,-5.25,3.69,3.22,
2.771,5.83,-0.83,-17.50,-5.57,4.81,3.36,
2.773,5.83,-0.83,-17.50,-5.70,5.46,3.41,
2.774,5.83,-0.83,-17.50,-5.74,5.75,3.43,
2.777,5.83,-0.83,-17.50,-5.77,6.26,3.42,
2.778,10.48,-1.17,-8.22,-5.77,6.26,3.42,
2.779,10.48,-1.17,-8.22,-5.74,6.67,3.39,
2.781,10.48,-1.17,-8.22,-5.57,7.11,3.28,
2.787,10.48,-1.17,-8.22,-5.49,7.20,3.22,
2.789,10.48,-1.17,-8.22,-5.27,7.31,3.09,
2.789,10.48,-1.17,-8.22,-4.99,7.31,2.93,
2.79,15.82,0.16,1.39,-4.99,7.31,2.93,
2.791,15.82,0.16,1.39,-4.65,7.20,2.72,
2.792,15.82,0.16,1.39,-4.02,6.86,2.35,
2.793,15.82,0.16,1.39,-3.53,6.53,2.05,
2.796,15.82,0.16,1.39,-3.26,6.33,1.88,
2.798,15.82,0.16,1.39,-2.67,5.89,1.54,
2.798,22.15,0.06,9.36,-2.67,5.89,1.54,
2.798,22.15,0.06,9.36,-2.03,5.38,1.16,
2.811,22.15,0.06,9.36,-0.97,4.54,0.57,
2.812,22.15,0.06,9.36,-0.59,4.24,0.37,
2.844,22.15,0.06,9.36,0.19,3.62,-0.03,
2.845,22.15,0.06,9.36,1.00,2.99,-0.42,
2.846,26.86,-1.74,15.54,1.00,2.99,-0.42,
2.846,26.86,-1.74,15.54,1.82,2.36,-0.81,
2.847,26.86,-1.74,15.54,3.06,1.45,-1.37,
2.847,26.86,-1.74,15.54,3.47,1.16,-1.54,
2.848,26.86,-1.74,15.54,4.27,0.61,-1.88,
2.848,26.86,-1.74,15.54,5.02,0.12,-2.20,
2.849,25.44,-4.28,15.10,5.02,0.12,-2.20,
2.849,25.44,-4.28,15.10,5.72,-0.32,-2.49,
2.85,25.44,-4.28,15.10,6.66,-0.88,-2.90,
2.85,25.44,-4.28,15.10,6.94,-1.04,-3.03,
2.851,25.44,-4.28,15.10,7.46,-1.32,-3.27,
2.851,25.44,-4.28,15.10,7.92,-1.53,-3.49,
2.852,20.91,-8.20,5.64,7.92,-1.53,-3.49,
2.852,20.91,-8.20,5.64,8.31,-1.67,-3.68,
2.853,20.91,-8.20,5.64,8.78,-1.75,-3.93,
2.853,20.91,-8.20,5.64,9.00,-1.72,-4.05,
2.854,20.91,-8.20,5.64,9.09,-1.69,-4.09,
2.854,20.91,-8.20,5.64,9.23,-1.61,-4.16,
2.855,16.42,-13.03,-8.02,9.23,-1.61,-4.16,
2.855,16.42,-13.03,-8.02,9.30,-1.52,-4.21,
2.856,16.42,-13.03,-8.02,9.27,-1.40,-4.29,
2.856,16.42,-13.03,-8.02,9.15,-1.33,-4.34,
2.857,16.42,-13.03,-8.02,9.07,-1.31,-4.37,
2.857,16.42,-13.03,-8.02,8.86,-1.26,-4.44,
2.858,17.21,-21.37,-22.61,8.86,-1.26,-4.44,
2.859,17.21,-21.37,-22.61,8.58,-1.22,-4.51,
2.86,17.21,-21.37,-22.61,8.07,-1.11,-4.63,
2.86,17.21,-21.37,-22.61,7.67,-0.96,-4.71,
2.861,17.21,-21.37,-22.61,7.45,-0.86,-4.75,
2.861,17.21,-21.37,-22.61,6.98,-0.61,-4.83,
2.862,21.92,-32.78,-34.93,6.98,-0.61,-4.83,
2.862,21.92,-32.78,-34.93,6.47,-0.31,-4.92,
2.863,21.92,-32.78,-34.93,5.61,0.21,-5.06,
2.863,21.92,-32.78,-34.93,5.01,0.58,-5.16,
2.866,21.92,-32.78,-34.93,4.70,0.77,-5.21,
2.867,21.92,-32.78,-34.93,4.07,1.12,-5.29,
2.869,20.98,-36.68,-40.60,4.07,1.12,-5.29,
2.869,20.98,-36.68,-40.60,3.46,1.43,-5.34,
2.871,20.98,-36.68,-40.60,2.58,1.80,-5.37,
2.872,20.98,-36.68,-40.60,2.04,1.99,-5.37,
2.874,20.98,-36.68,-40.60,1.79,2.07,-5.37,
2.876,20.98,-36.68,-40.60,1.32,2.21,-5.37,
2.878,11.74,-26.13,-32.89,1.32,2.21,-5.37,
2.879,11.74,-26.13,-32.89,0.90,2.35,-5.35,
2.882,11.74,-26.13,-32.89,0.39,2.53,-5.33,
2.884,11.74,-26.13,-32.89,0.12,2.65,-5.30,
2.884,11.74,-26.13,-32.89,0.01,2.72,-5.30,
2.887,11.74,-26.13,-32.89,-0.16,2.93,-5.30,
2.888,5.63,-20.45,-20.94,-0.16,2.93,-5.30,
2.889,5.63,-20.45,-20.94,-0.29,3.05,-5.29,
2.891,5.63,-20.45,-20.94,-0.44,3.33,-5.25,
2.892,5.63,-20.45,-20.94,-0.43,2.97,-5.14,
2.896,5.63,-20.45,-20.94,-0.17,1.02,-4.88,
2.896,5.63,-20.45,-20.94,0.04,-0.44,-4.68,
2.901,-6.71,-26.42,-26.35,0.04,-0.44,-4.68,
2.903,-6.71,-26.42,-26.35,0.53,-3.99,-4.16,
2.904,-6.71,-26.42,-26.35,1.08,-9.03,-3.35,
2.905,-6.71,-26.42,-26.35,1.11,-10.71,-3.02,
2.906,-6.71,-26.42,-26.35,0.99,-10.87,-2.93,
2.907,-6.71,-26.42,-26.35,0.50,-10.02,-2.91,
2.909,-10.57,-23.89,-45.02,0.50,-10.02,-2.91,
2.91,-10.57,-23.89,-45.02,-0.28,-8.06,-3.06,
2.912,-10.57,-23.89,-45.02,-1.64,-4.48,-3.49,
2.913,-10.57,-23.89,-45.02,-2.47,-2.42,-3.76,
2.921,-10.57,-23.89,-45.02,-2.84,-1.53,-3.87,
2.923,-10.57,-23.89,-45.02,-3.49,-0.05,-4.05,
2.925,8.65,-19.84,-36.25,-3.49,-0.05,-4.05,
2.926,8.65,-19.84,-36.25,-3.98,1.06,-4.17,
2.926,8.65,-19.84,-36.25,-4.42,2.21,-4.25,
2.927,8.65,-19.84,-36.25,-4.55,2.73,-4.25,
2.928,8.65,-19.84,-36.25,-4.57,2.90,-4.23,
2.929,8.65,-19.84,-36.25,-4.53,3.07,-4.18,
2.93,1.66,-18.82,-10.20,-4.53,3.07,-4.18,
2.931,1.66,-18.82,-10.20,-4.40,3.01,-4.10,
2.932,1.66,-18.82,-10.20,-4.07,2.71,-3.94,
2.933,1.66,-18.82,-10.20,-3.75,2.47,-3.79,
2.943,1.66,-18.82,-10.20,-3.56,2.34,-3.69,
2.943,1.66,-18.82,-10.20,-3.16,2.06,-3.44,
2.944,-7.39,-19.32,5.48,-3.16,2.06,-3.44,
2.945,-7.39,-19.32,5.48,-2.75,1.76,-3.15,
2.945,-7.39,-19.32,5.48,-2.14,1.40,-2.65,
2.946,-7.39,-19.32,5.48,-1.75,1.20,-2.30,
2.946,-7.39,-19.32,5.48,-1.57,1.10,-2.13,
2.946,-7.39,-19.32,5.48,-1.22,0.87,-1.79,
2.96,-10.30,-18.46,12.51,-1.22,0.87,-1.79,
2.963,-10.30,-18.46,12.51,-0.90,0.60,-1.46,
2.965,-10.30,-18.46,12.51,-0.49,0.11,-0.97,
2.966,-10.30,-18.46,12.51,-0.28,-0.21,-0.69,
2.967,-10.30,-18.46,12.51,-0.21,-0.37,-0.55,
2.969,-10.30,-18.46,12.51,-0.05,-0.83,-0.25,
2.97,-6.87,-19.32,11.73,-0.05,-0.83,-0.25,
2.971,-6.87,-19.32,11.73,0.10,-1.33,0.05,
2.972,-6.87,-19.32,11.73,0.24,-2.00,0.50,
2.972,-6.87,-19.32,11.73,0.30,-2.42,0.82,
2.972,-6.87,-19.32,11.73,0.31,-2.61,0.98,
2.973,-6.87,-19.32,11.73,0.32,-2.92,1.31,
2.973,-4.77,-17.26,9.37,0.32,-2.92,1.31,
2.974,-4.77,-17.26,9.37,0.30,-3.16,1.63,
3.009,-4.77,-17.26,9.37,0.21,-3.36,2.09,
3.01,-4.77,-17.26,9.37,0.12,-3.40,2.37,
3.01,-4.77,-17.26,9.37,0.07,-3.39,2.51,
3.011,-4.77,-17.26,9.37,-0.05,-3.30,2.76,
3.012,-1.61,-12.98,6.75,-0.05,-3.30,2.76,
3.014,-1.61,-12.98,6.75,-0.18,-3.11,2.99,
3.015,-1.61,-12.98,6.75,-0.40,-2.68,3.27,
3.016,-1.61,-12.98,6.75,-0.57,-2.31,3.42,
3.016,-1.61,-12.98,6.75,-0.66,-2.11,3.49,
3.018,-1.61,-12.98,6.75,-0.85,-1.67,3.60,
3.019,3.04,-9.87,4.19,-0.85,-1.67,3.60,
3.02,3.04,-9.87,4.19,-1.05,-1.19,3.69,
3.021,3.04,-9.87,4.19,-1.46,-0.19,3.79,
3.025,3.04,-9.87,4.19,-1.57,0.07,3.79,
3.025,3.04,-9.87,4.19,-1.69,0.32,3.78,
3.026,3.04,-9.87,4.19,-1.91,0.81,3.74,
3.026,6.87,-6.47,2.80,-1.91,0.81,3.74,
3.027,6.87,-6.47,2.80,-2.14,1.28,3.66,
3.027,6.87,-6.47,2.80,-2.48,1.86,3.46,
3.028,6.87,-6.47,2.80,-2.69,2.12,3.25,
3.028,6.87,-6.47,2.80,-2.78,2.20,3.13,
3.029,6.87,-6.47,2.80,-2.92,2.19,2.85,
3.029,9.45,-0.41,0.49,-2.92,2.19,2.85,
3.03,9.45,-0.41,0.49,-2.95,1.81,2.54,
3.03,9.45,-0.41,0.49,-2.76,0.74,2.01,
3.031,9.45,-0.41,0.49,-2.50,-0.12,1.65,
3.031,9.45,-0.41,0.49,-2.13,-1.07,1.28,
3.031,9.45,-0.41,0.49,-1.36,-2.59,0.89,
3.032,14.32,12.83,0.20,-1.36,-2.59,0.89,
3.032,14.32,12.83,0.20,-0.40,-4.15,0.53,
3.033,14.32,12.83,0.20,0.14,-4.79,0.30,
3.033,14.32,12.83,0.20,0.13,-4.49,0.21,
3.034,14.32,12.83,0.20,-0.22,-3.81,0.26,
3.034,14.32,12.83,0.20,-0.67,-3.09,0.36,
3.035,-0.77,10.33,-15.07,-0.67,-3.09,0.36,
3.035,-0.77,10.33,-15.07,-1.07,-2.47,0.45,
3.036,-0.77,10.33,-15.07,-1.36,-2.07,0.49,
3.036,-0.77,10.33,-15.07,-1.54,-1.92,0.50,
3.037,-0.77,10.33,-15.07,-1.67,-1.91,0.51,
3.037,-0.77,10.33,-15.07,-1.73,-1.94,0.55,
3.042,-1.05,12.26,-11.10,-1.73,-1.94,0.55,
3.043,-1.05,12.26,-11.10,-1.72,-1.93,0.62,
3.044,-1.05,12.26,-11.10,-1.57,-1.81,0.67,
3.044,-1.05,12.26,-11.10,-1.51,-1.75,0.66,
3.044,-1.05,12.26,-11.10,-1.36,-1.59,0.59,
3.047,-1.05,12.26,-11.10,-1.19,-1.42,0.52,
3.049,1.60,4.39,4.81,-1.19,-1.42,0.52,
3.05,1.60,4.39,4.81,-1.00,-1.26,0.44,
3.051,1.60,4.39,4.81,-0.78,-1.09,0.37,
3.052,1.60,4.39,4.81,-0.54,-0.94,0.30,
3.057,1.60,4.39,4.81,-0.31,-0.84,0.23,
3.057,1.60,4.39,4.81,-0.09,-0.77,0.17,
3.058,3.67,-1.21,12.44,-0.09,-0.77,0.17,
3.059,3.67,-1.21,12.44,0.12,-0.73,0.12,
3.062,3.67,-1.21,12.44,0.32,-0.71,0.08,
3.062,3.67,-1.21,12.44,0.51,-0.72,0.07,
3.07,3.67,-1.21,12.44,0.67,-0.73,0.06,
3.071,3.67,-1.21,12.44,0.80,-0.72,0.05,
3.072,1.30,-3.67,10.36,0.80,-0.72,0.05,
3.073,1.30,-3.67,10.36,0.91,-0.71,0.05,
3.073,1.30,-3.67,10.36,1.00,-0.72,0.06,
3.074,1.30,-3.67,10.36,1.06,-0.72,0.07,
3.075,1.30,-3.67,10.36,1.08,-0.69,0.07,
3.098,1.30,-3.67,10.36,1.08,-0.68,0.06,
3.099,0.41,-3.94,2.24,1.08,-0.68,0.06,
3.1,0.41,-3.94,2.24,1.06,-0.68,0.05,
3.101,0.41,-3.94,2.24,1.02,-0.68,0.03,
3.102,0.41,-3.94,2.24,0.95,-0.67,0.00,
3.102,0.41,-3.94,2.24,0.87,-0.67,-0.01,
3.103,0.41,-3.94,2.24,0.77,-0.66,-0.03,
3.104,-0.18,-3.45,-4.49,0.77,-0.66,-0.03,
3.104,-0.18,-3.45,-4.49,0.67,-0.64,-0.06,
3.105,-0.18,-3.45,-4.49,0.59,-0.65,-0.07,
3.105,-0.18,-3.45,-4.49,0.51,-0.65,-0.08,
3.105,-0.18,-3.45,-4.49,0.44,-0.65,-0.06,
3.106,-0.18,-3.45,-4.49,0.38,-0.64,-0.02,
3.106,-1.65,-1.94,-4.44,0.38,-0.64,-0.02,
3.106,-1.65,-1.94,-4.44,0.33,-0.64,0.02,
3.107,-1.65,-1.94,-4.44,0.28,-0.66,0.08,
3.107,-1.65,-1.94,-4.44,0.25,-0.66,0.15,
3.107,-1.65,-1.94,-4.44,0.24,-0.68,0.23,
3.108,-1.65,-1.94,-4.44,0.25,-0.70,0.31,
3.11,-2.46,-0.81,-1.14,0.25,-0.70,0.31,
3.11,-2.46,-0.81,-1.14,0.26,-0.73,0.38,
3.111,-2.46,-0.81,-1.14,0.28,-0.75,0.42,
3.112,-2.46,-0.81,-1.14,0.30,-0.75,0.45,
3.117,-2.46,-0.81,-1.14,0.32,-0.75,0.47,
3.12,-2.46,-0.81,-1.14,0.34,-0.73,0.48,
3.12,0.93,-0.66,1.00,0.34,-0.73,0.48,
3.12,0.93,-0.66,1.00,0.37,-0.71,0.46,
3.121,0.93,-0.66,1.00,0.38,-0.67,0.43,
3.122,0.93,-0.66,1.00,0.40,-0.63,0.39,
3.124,0.93,-0.66,1.00,0.42,-0.60,0.34,
3.127,0.93,-0.66,1.00,0.44,-0.61,0.27,
3.128,4.74,-0.72,0.97,0.44,-0.61,0.27,
3.129,4.74,-0.72,0.97,0.45,-0.61,0.20,
3.131,4.74,-0.72,0.97,0.44,-0.59,0.12,
3.132,4.74,-0.72,0.97,0.42,-0.54,0.06,
3.137,4.74,-0.72,0.97,0.38,-0.51,0.00,
3.138,4.74,-0.72,0.97,0.34,-0.50,-0.04,
3.167,4.22,-1.04,-1.78,0.34,-0.50,-0.04,
3.167,4.22,-1.04,-1.78,0.29,-0.50,-0.07,
3.167,4.22,-1.04,-1.78,0.21,-0.48,-0.09,
3.168,4.22,-1.04,-1.78,0.18,-0.48,-0.10,
3.168,4.22,-1.04,-1.78,0.11,-0.45,-0.10,
3.169,4.22,-1.04,-1.78,0.05,-0.41,-0.10,
3.169,1.13,-1.66,-3.46,0.05,-0.41,-0.10,
3.169,1.13,-1.66,-3.46,-0.01,-0.37,-0.10,
3.17,1.13,-1.66,-3.46,-0.06,-0.34,-0.09,
3.17,1.13,-1.66,-3.46,-0.08,-0.34,-0.08,
3.171,1.13,-1.66,-3.46,-0.10,-0.35,-0.07,
3.171,1.13,-1.66,-3.46,-0.11,-0.36,-0.05,
3.172,0.16,-1.39,-1.48,-0.11,-0.36,-0.05,
3.172,0.16,-1.39,-1.48,-0.11,-0.35,-0.03,
3.172,0.16,-1.39,-1.48,-0.10,-0.33,-0.02,
3.173,0.16,-1.39,-1.48,-0.09,-0.32,0.00,
3.173,0.16,-1.39,-1.48,-0.07,-0.30,0.01,
3.174,0.16,-1.39,-1.48,-0.06,-0.29,0.02,
3.174,0.10,-1.22,0.60,-0.06,-0.29,0.02,
3.174,0.10,-1.22,0.60,-0.04,-0.27,0.03,
3.175,0.10,-1.22,0.60,-0.02,-0.25,0.03,
3.175,0.10,-1.22,0.60,0.00,-0.23,0.03,
3.176,0.10,-1.22,0.60,0.02,-0.23,0.02,
3.178,0.10,-1.22,0.60,0.03,-0.24,0.01,
3.178,1.02,-1.02,0.94,0.03,-0.24,0.01,
3.178,1.02,-1.02,0.94,0.04,-0.24,-0.00,
3.186,1.02,-1.02,0.94,0.04,-0.25,-0.01,
3.186,1.02,-1.02,0.94,0.05,-0.25,-0.02,
3.186,1.02,-1.02,0.94,0.04,-0.26,-0.03,
3.187,1.02,-1.02,0.94,0.04,-0.25,-0.04,
3.188,1.10,-1.01,0.10,0.04,-0.25,-0.04,
3.189,1.10,-1.01,0.10,0.03,-0.24,-0.05,
3.192,1.10,-1.01,0.10,0.01,-0.24,-0.05,
3.193,1.10,-1.01,0.10,-0.00,-0.24,-0.05,
3.194,1.10,-1.01,0.10,-0.02,-0.23,-0.05,
3.199,1.10,-1.01,0.10,-0.03,-0.22,-0.05,
3.2,0.67,-1.08,-0.63,-0.03,-0.22,-0.05,
3.2,0.67,-1.08,-0.63,-0.04,-0.22,-0.05,
3.203,0.67,-1.08,-0.63,-0.04,-0.21,-0.05,
3.203,0.67,-1.08,-0.63,-0.04,-0.20,-0.06,
3.204,0.67,-1.08,-0.63,-0.03,-0.20,-0.07,
3.21,0.67,-1.08,-0.63,-0.01,-0.19,-0.07,
3.21,0.12,-0.95,0.31,-0.01,-0.19,-0.07,
3.211,0.12,-0.95,0.31,0.01,-0.17,-0.06,
3.211,0.12,-0.95,0.31,0.03,-0.14,-0.05,
3.212,0.12,-0.95,0.31,0.03,-0.12,-0.05,
3.227,0.12,-0.95,0.31,0.03,-0.11,-0.05,
3.227,0.12,-0.95,0.31,0.04,-0.11,-0.05,
3.227,0.11,-0.87,0.58,0.04,-0.11,-0.05,
3.228,0.11,-0.87,0.58,0.05,-0.12,-0.06,
3.228,0.11,-0.87,0.58,0.09,-0.13,-0.07,
3.228,0.11,-0.87,0.58,0.10,-0.12,-0.07,
3.228,0.11,-0.87,0.58,0.11,-0.10,-0.07,
3.228,0.11,-0.87,0.58,0.12,-0.08,-0.07,
3.238,0.18,-1.05,0.89,0.12,-0.08,-0.07,
3.239,0.18,-1.05,0.89,0.13,-0.07,-0.08,
3.239,0.18,-1.05,0.89,0.13,-0.06,-0.08,
3.24,0.18,-1.05,0.89,0.12,-0.06,-0.08,
3.24,0.18,-1.05,0.89,0.11,-0.05,-0.09,
3.24,0.18,-1.05,0.89,0.10,-0.04,-0.11,
3.241,0.44,-0.97,-0.20,0.10,-0.04,-0.11,
3.242,0.44,-0.97,-0.20,0.08,-0.03,-0.12,
3.242,0.44,-0.97,-0.20,0.06,0.00,-0.12,
3.243,0.44,-0.97,-0.20,0.05,0.01,-0.12,
3.248,0.44,-0.97,-0.20,0.04,0.03,-0.13,
3.249,0.44,-0.97,-0.20,0.02,0.04,-0.13,
3.249,0.03,-0.89,-0.71,0.02,0.04,-0.13,
3.25,0.03,-0.89,-0.71,0.01,0.05,-0.12,
3.251,0.03,-0.89,-0.71,-0.01,0.05,-0.13,
3.253,0.03,-0.89,-0.71,-0.01,0.05,-0.13,
3.254,0.03,-0.89,-0.71,-0.01,0.07,-0.13,
3.257,0.03,-0.89,-0.71,-0.02,0.08,-0.13,
3.259,-0.02,-0.91,-0.38,-0.02,0.08,-0.13,
3.259,-0.02,-0.91,-0.38,-0.03,0.08,-0.12,
3.261,-0.02,-0.91,-0.38,-0.02,0.08,-0.10,
3.263,-0.02,-0.91,-0.38,-0.01,0.08,-0.09,
3.266,-0.02,-0.91,-0.38,-0.01,0.09,-0.10,
3.267,-0.02,-0.91,-0.38,-0.01,0.09,-0.11,
3.268,0.23,-0.76,0.40,-0.01,0.09,-0.11,
3.269,0.23,-0.76,0.40,-0.01,0.08,-0.12,
3.271,0.23,-0.76,0.40,0.02,0.08,-0.13,
3.272,0.23,-0.76,0.40,0.04,0.08,-0.14,
3.275,0.23,-0.76,0.40,0.06,0.10,-0.15,
3.277,0.23,-0.76,0.40,0.07,0.11,-0.17,
3.278,0.95,-0.70,1.14,0.07,0.11,-0.17,
3.279,0.95,-0.70,1.14,0.07,0.11,-0.19,
3.281,0.95,-0.70,1.14,0.07,0.13,-0.22,
3.285,0.95,-0.70,1.14,0.07,0.13,-0.23,
3.285,0.95,-0.70,1.14,0.06,0.12,-0.24,
3.286,0.95,-0.70,1.14,0.06,0.08,-0.25,
3.288,0.57,-0.82,0.28,0.06,0.08,-0.25,
3.289,0.57,-0.82,0.28,0.05,0.04,-0.24,
3.291,0.57,-0.82,0.28,0.02,0.02,-0.22,
3.292,0.57,-0.82,0.28,0.01,0.02,-0.22,
3.294,0.57,-0.82,0.28,-0.02,0.01,-0.20,
3.297,0.57,-0.82,0.28,-0.04,0.01,-0.18,
3.299,-0.94,-1.12,-0.79,-0.04,0.01,-0.18,
3.299,-0.94,-1.12,-0.79,-0.06,-0.01,-0.16,
3.302,-0.94,-1.12,-0.79,-0.08,-0.04,-0.12,
3.303,-0.94,-1.12,-0.79,-0.09,-0.04,-0.11,
3.335,-0.94,-1.12,-0.79,-0.10,-0.06,-0.08,
3.336,-0.94,-1.12,-0.79,-0.10,-0.07,-0.07,
3.336,-1.26,-0.97,-0.33,-0.10,-0.07,-0.07,
3.336,-1.26,-0.97,-0.33,-0.10,-0.07,-0.06,
3.337,-1.26,-0.97,-0.33,-0.10,-0.07,-0.04,
3.337,-1.26,-0.97,-0.33,-0.10,-0.07,-0.04,
3.338,-1.26,-0.97,-0.33,-0.09,-0.06,-0.04,
3.338,-1.26,-0.97,-0.33,-0.08,-0.05,-0.04,
3.339,-0.39,-0.65,0.61,-0.08,-0.05,-0.04,
3.34,-0.39,-0.65,0.61,-0.07,-0.05,-0.04,
3.34,-0.39,-0.65,0.61,-0.05,-0.04,-0.04,
3.34,-0.39,-0.65,0.61,-0.05,-0.04,-0.04,
3.341,-0.39,-0.65,0.61,-0.03,-0.04,-0.04,
3.341,-0.39,-0.65,0.61,-0.03,-0.04,-0.05,
3.342,0.21,-0.63,0.82,-0.03,-0.04,-0.05,
3.342,0.21,-0.63,0.82,-0.03,-0.05,-0.05,
3.343,0.21,-0.63,0.82,-0.03,-0.06,-0.06,
3.343,0.21,-0.63,0.82,-0.03,-0.07,-0.07,
3.344,0.21,-0.63,0.82,-0.03,-0.08,-0.08,
3.344,0.21,-0.63,0.82,-0.04,-0.09,-0.08,
3.345,0.47,-0.77,0.25,-0.04,-0.09,-0.08,
3.345,0.47,-0.77,0.25,-0.06,-0.09,-0.09,
3.345,0.47,-0.77,0.25,-0.08,-0.11,-0.09,
3.346,0.47,-0.77,0.25,-0.08,-0.12,-0.08,
3.347,0.47,-0.77,0.25,-0.09,-0.13,-0.08,
3.347,0.47,-0.77,0.25,-0.11,-0.15,-0.08,
3.355,-0.14,-0.99,-0.27,-0.11,-0.15,-0.08,
3.356,-0.14,-0.99,-0.27,-0.13,-0.17,-0.07,
3.357,-0.14,-0.99,-0.27,-0.15,-0.19,-0.06,
3.357,-0.14,-0.99,-0.27,-0.16,-0.20,-0.06,
3.357,-0.14,-0.99,-0.27,-0.18,-0.22,-0.06,
3.358,-0.14,-0.99,-0.27,-0.20,-0.24,-0.06,
3.363,-0.22,-1.01,-0.39,-0.20,-0.24,-0.06,
3.364,-0.22,-1.01,-0.39,-0.22,-0.26,-0.06,
3.364,-0.22,-1.01,-0.39,-0.24,-0.28,-0.06,
3.364,-0.22,-1.01,-0.39,-0.25,-0.29,-0.06,
3.365,-0.22,-1.01,-0.39,-0.27,-0.30,-0.06,
3.376,-0.22,-1.01,-0.39,-0.28,-0.29,-0.06,
3.377,0.02,-0.89,-0.23,-0.28,-0.29,-0.06,
3.381,0.02,-0.89,-0.23,-0.29,-0.30,-0.06,
3.382,0.02,-0.89,-0.23,-0.29,-0.32,-0.06,
3.382,0.02,-0.89,-0.23,-0.29,-0.33,-0.06,
3.382,0.02,-0.89,-0.23,-0.30,-0.36,-0.05,
3.383,0.02,-0.89,-0.23,-0.30,-0.39,-0.05,
3.383,0.01,-0.76,0.02,-0.30,-0.39,-0.05,
3.383,0.01,-0.76,0.02,-0.31,-0.41,-0.05,
3.384,0.01,-0.76,0.02,-0.33,-0.41,-0.04,
3.384,0.01,-0.76,0.02,-0.33,-0.40,-0.04,
3.391,0.01,-0.76,0.02,-0.34,-0.40,-0.03,
3.392,0.01,-0.76,0.02,-0.34,-0.39,-0.03,
3.393,-0.27,-0.62,0.04,-0.34,-0.39,-0.03,
3.393,-0.27,-0.62,0.04,-0.33,-0.38,-0.01,
3.394,-0.27,-0.62,0.04,-0.32,-0.37,-0.00,
3.394,-0.27,-0.62,0.04,-0.31,-0.37,0.00,
3.395,-0.27,-0.62,0.04,-0.29,-0.36,0.01,
3.398,-0.27,-0.62,0.04,-0.27,-0.35,0.01,
3.401,-0.15,-0.49,0.90,-0.27,-0.35,0.01,
3.402,-0.15,-0.49,0.90,-0.25,-0.33,0.00,
3.402,-0.15,-0.49,0.90,-0.22,-0.31,-0.00,
3.403,-0.15,-0.49,0.90,-0.21,-0.30,-0.00,
3.405,-0.15,-0.49,0.90,-0.19,-0.28,-0.01,
3.407,-0.15,-0.49,0.90,-0.17,-0.26,-0.01,
3.411,0.01,-0.40,1.27,-0.17,-0.26,-0.01,
3.411,0.01,-0.40,1.27,-0.15,-0.24,-0.01,
3.412,0.01,-0.40,1.27,-0.12,-0.20,-0.00,
3.414,0.01,-0.40,1.27,-0.11,-0.19,-0.00,
3.416,0.01,-0.40,1.27,-0.09,-0.18,-0.00,
3.417,0.01,-0.40,1.27,-0.08,-0.16,-0.01,
3.419,-0.02,-0.42,0.87,-0.08,-0.16,-0.01,
3.42,-0.02,-0.42,0.87,-0.07,-0.15,-0.01,
3.422,-0.02,-0.42,0.87,-0.06,-0.12,-0.02,
3.423,-0.02,-0.42,0.87,-0.06,-0.12,-0.02,
3.425,-0.02,-0.42,0.87,-0.05,-0.10,-0.02,
3.428,-0.02,-0.42,0.87,-0.05,-0.08,-0.02,
3.429,-0.05,-0.59,0.53,-0.05,-0.08,-0.02,
3.429,-0.05,-0.59,0.53,-0.04,-0.07,-0.02,
3.434,-0.05,-0.59,0.53,-0.04,-0.05,-0.02,
3.435,-0.05,-0.59,0.53,-0.04,-0.04,-0.02,
3.436,-0.05,-0.59,0.53,-0.04,-0.03,-0.01,
3.436,-0.05,-0.59,0.53,-0.04,-0.01,-0.00,
3.439,-0.52,-0.60,0.26,-0.04,-0.01,-0.00,
3.439,-0.52,-0.60,0.26,-0.04,0.01,0.00,
3.441,-0.52,-0.60,0.26,-0.03,0.03,0.02,
3.443,-0.52,-0.60,0.26,-0.02,0.04,0.02,
3.445,-0.52,-0.60,0.26,-0.01,0.04,0.02,
3.448,-0.52,-0.60,0.26,-0.01,0.05,0.02,
3.453,-0.23,-0.57,0.61,-0.01,0.05,0.02,
3.453,-0.23,-0.57,0.61,0.00,0.05,0.03,
3.453,-0.23,-0.57,0.61,0.02,0.06,0.04,
3.454,-0.23,-0.57,0.61,0.03,0.07,0.04,
3.46,0.42,-0.56,0.62,0.03,0.07,0.04,
3.461,0.42,-0.56,0.62,0.03,0.11,0.01,
3.462,0.42,-0.56,0.62,0.03,0.11,0.01,
3.465,0.42,-0.56,0.62,0.03,0.11,0.01,
3.465,0.42,-0.56,0.62,-0.01,0.14,0.00,
3.465,0.42,-0.56,0.62,-0.01,0.13,0.02,
3.465,0.42,-0.56,0.62,-0.02,0.10,0.05,
3.471,0.42,-0.56,0.62,-0.02,0.06,0.08,
3.473,-0.82,-0.52,-0.02,-0.02,0.06,0.08,
3.474,-0.82,-0.52,-0.02,-0.01,0.05,0.07,
3.509,-0.82,-0.52,-0.02,0.01,0.05,0.05,
3.509,-0.82,-0.52,-0.02,0.01,0.05,0.04,
3.51,-0.82,-0.52,-0.02,0.02,0.06,0.04,
3.51,-0.82,-0.52,-0.02,0.03,0.06,0.02,
3.511,0.48,-0.48,0.94,0.03,0.06,0.02,
3.511,0.48,-0.48,0.94,0.05,0.06,0.01,
3.511,0.48,-0.48,0.94,0.06,0.05,-0.01,
3.512,0.48,-0.48,0.94,0.06,0.04,-0.01,
3.512,0.48,-0.48,0.94,0.06,0.03,-0.02,
3.513,0.48,-0.48,0.94,0.05,0.03,-0.01,
3.513,0.25,-0.62,0.60,0.05,0.03,-0.01,
3.513,0.25,-0.62,0.60,0.05,0.02,-0.01,
3.514,0.25,-0.62,0.60,0.04,0.02,-0.01,
3.514,0.25,-0.62,0.60,0.04,0.02,-0.00,
3.515,0.25,-0.62,0.60,0.04,0.02,-0.00,
3.515,0.25,-0.62,0.60,0.04,0.01,0.00,
3.515,-0.28,-0.49,0.25,0.04,0.01,0.00,
3.516,-0.28,-0.49,0.25,0.04,0.01,0.01,
3.516,-0.28,-0.49,0.25,0.04,-0.00,0.02,
3.517,-0.28,-0.49,0.25,0.04,-0.00,0.03,
3.517,-0.28,-0.49,0.25,0.04,-0.01,0.04,
3.518,-0.28,-0.49,0.25,0.04,-0.01,0.04,
3.518,-0.52,-0.58,0.29,0.04,-0.01,0.04,
3.518,-0.52,-0.58,0.29,0.04,-0.02,0.05,
3.519,-0.52,-0.58,0.29,0.04,-0.03,0.06,
3.519,-0.52,-0.58,0.29,0.04,-0.04,0.06,
3.519,-0.52,-0.58,0.29,0.04,-0.06,0.06,
3.519,-0.52,-0.58,0.29,0.03,-0.08,0.06,
3.52,0.05,-0.69,0.33,0.03,-0.08,0.06,
3.52,0.05,-0.69,0.33,0.03,-0.09,0.06,
3.524,0.05,-0.69,0.33,0.03,-0.10,0.05,
3.525,0.05,-0.69,0.33,0.02,-0.10,0.04,
3.525,0.05,-0.69,0.33,0.02,-0.10,0.03,
3.528,0.05,-0.69,0.33,0.02,-0.10,0.03,
3.529,0.54,-0.52,0.16,0.02,-0.10,0.03,
3.529,0.54,-0.52,0.16,0.02,-0.10,0.01,
3.537,0.54,-0.52,0.16,0.01,-0.10,-0.00,
3.538,0.54,-0.52,0.16,0.01,-0.10,-0.00,
3.538,0.54,-0.52,0.16,-0.00,-0.10,-0.02,
3.539,0.54,-0.52,0.16,-0.01,-0.10,-0.02,
3.539,0.39,-0.54,-0.18,-0.01,-0.10,-0.02,
3.539,0.39,-0.54,-0.18,-0.03,-0.09,-0.03,
3.546,0.39,-0.54,-0.18,-0.04,-0.08,-0.03,
3.546,0.39,-0.54,-0.18,-0.04,-0.08,-0.03,
3.546,0.39,-0.54,-0.18,-0.06,-0.08,-0.03,
3.547,0.39,-0.54,-0.18,-0.06,-0.08,-0.02,
3.55,-0.24,-0.63,-0.12,-0.06,-0.08,-0.02,
3.552,-0.24,-0.63,-0.12,-0.05,-0.08,-0.02,
3.553,-0.24,-0.63,-0.12,-0.05,-0.09,-0.00,
3.553,-0.24,-0.63,-0.12,-0.04,-0.09,0.00,
3.556,-0.24,-0.63,-0.12,-0.01,-0.10,0.02,
3.557,-0.24,-0.63,-0.12,0.01,-0.10,0.03,
3.56,-0.61,-0.63,1.20,0.01,-0.10,0.03,
3.561,-0.61,-0.63,1.20,0.02,-0.09,0.02,
3.561,-0.61,-0.63,1.20,0.04,-0.08,0.03,
3.565,-0.61,-0.63,1.20,0.05,-0.07,0.03,
3.566,-0.61,-0.63,1.20,0.07,-0.08,0.05,
3.567,-0.61,-0.63,1.20,0.09,-0.10,0.06,
3.568,-0.67,-0.58,1.42,0.09,-0.10,0.06,
3.569,-0.67,-0.58,1.42,0.10,-0.10,0.07,
3.572,-0.67,-0.58,1.42,0.11,-0.10,0.07,
3.573,-0.67,-0.58,1.42,0.12,-0.10,0.08,
3.575,-0.67,-0.58,1.42,0.12,-0.09,0.09,
3.577,-0.67,-0.58,1.42,0.12,-0.10,0.11,
3.582,-0.53,-0.46,0.83,0.12,-0.10,0.11,
3.584,-0.53,-0.46,0.83,0.13,-0.12,0.12,
3.584,-0.53,-0.46,0.83,0.13,-0.13,0.11,
3.585,-0.53,-0.46,0.83,0.13,-0.13,0.11,
3.586,-0.53,-0.46,0.83,0.12,-0.12,0.11,
3.587,-0.53,-0.46,0.83,0.11,-0.11,0.11,
3.589,0.19,-0.43,0.14,0.11,-0.11,0.11,
3.589,0.19,-0.43,0.14,0.11,-0.12,0.11,
3.592,0.19,-0.43,0.14,0.10,-0.13,0.09,
3.592,0.19,-0.43,0.14,0.09,-0.13,0.08,
3.596,0.19,-0.43,0.14,0.08,-0.11,0.07,
3.601,0.19,-0.43,0.14,0.06,-0.10,0.06,
3.602,0.77,-0.13,-0.44,0.06,-0.10,0.06,
3.602,0.77,-0.13,-0.44,0.04,-0.09,0.05,
3.603,0.77,-0.13,-0.44,0.03,-0.10,0.04,
3.603,0.77,-0.13,-0.44,0.02,-0.10,0.03,
3.605,0.77,-0.13,-0.44,0.02,-0.11,0.01,
3.607,0.77,-0.13,-0.44,0.02,-0.10,0.00,
3.611,0.79,-0.10,-0.12,0.02,-0.10,0.00,
3.612,0.79,-0.10,-0.12,0.02,-0.10,-0.00,
3.612,0.79,-0.10,-0.12,0.03,-0.08,0.01,
3.612,0.79,-0.10,-0.12,0.02,-0.07,0.02,
3.617,0.79,-0.10,-0.12,0.02,-0.07,0.02,
3.621,0.79,-0.10,-0.12,0.03,-0.07,0.01,
3.621,0.08,-0.37,0.52,0.03,-0.07,0.01,
3.622,0.08,-0.37,0.52,0.04,-0.06,0.02,
3.622,0.08,-0.37,0.52,0.06,-0.06,0.02,
3.629,0.08,-0.37,0.52,0.06,-0.06,0.02,
3.629,0.08,-0.37,0.52,0.08,-0.05,0.02,
3.63,0.08,-0.37,0.52,0.09,-0.05,0.03,
3.63,-0.16,-0.40,0.98,0.09,-0.05,0.03,
3.63,-0.16,-0.40,0.98,0.10,-0.05,0.03,
3.641,-0.16,-0.40,0.98,0.11,-0.05,0.04,
3.643,-0.16,-0.40,0.98,0.11,-0.06,0.04,
3.644,-0.16,-0.40,0.98,0.12,-0.06,0.05,
3.645,-0.16,-0.40,0.98,0.12,-0.09,0.06,
3.674,-0.55,-0.54,0.69,0.12,-0.09,0.06,
3.675,-0.55,-0.54,0.69,0.12,-0.09,0.07,
3.676,-0.55,-0.54,0.69,0.11,-0.10,0.08,
3.676,-0.55,-0.54,0.69,0.11,-0.10,0.08,
3.677,-0.55,-0.54,0.69,0.11,-0.10,0.08,
3.677,-0.55,-0.54,0.69,0.10,-0.10,0.09,
3.677,-0.34,-0.55,0.21,0.10,-0.10,0.09,
3.678,-0.34,-0.55,0.21,0.10,-0.11,0.09,
3.678,-0.34,-0.55,0.21,0.09,-0.12,0.10,
3.679,-0.34,-0.55,0.21,0.09,-0.13,0.10,
3.679,-0.34,-0.55,0.21,0.09,-0.13,0.09,
3.679,-0.34,-0.55,0.21,0.08,-0.15,0.09,
3.68,-0.07,-0.44,0.19,0.08,-0.15,0.09,
3.68,-0.07,-0.44,0.19,0.09,-0.15,0.10,
3.68,-0.07,-0.44,0.19,0.08,-0.15,0.13,
3.68,-0.07,-0.44,0.19,0.08,-0.17,0.13,
3.681,-0.07,-0.44,0.19,0.08,-0.18,0.12,
3.681,-0.07,-0.44,0.19,0.09,-0.16,0.10,
3.681,0.53,-0.26,0.32,0.09,-0.16,0.10,
3.681,0.53,-0.26,0.32,0.08,-0.14,0.09,
3.682,0.53,-0.26,0.32,0.08,-0.11,0.07,
3.682,0.53,-0.26,0.32,0.08,-0.11,0.07,
3.682,0.53,-0.26,0.32,0.08,-0.10,0.06,
3.683,0.53,-0.26,0.32,0.08,-0.11,0.06,
3.683,0.55,-0.12,0.27,0.08,-0.11,0.06,
3.683,0.55,-0.12,0.27,0.08,-0.11,0.05,
3.683,0.55,-0.12,0.27,0.08,-0.10,0.05,
3.684,0.55,-0.12,0.27,0.08,-0.10,0.05,
3.684,0.55,-0.12,0.27,0.08,-0.10,0.04,
3.688,0.55,-0.12,0.27,0.08,-0.12,0.05,
3.689,0.05,-0.35,0.24,0.08,-0.12,0.05,
3.69,0.05,-0.35,0.24,0.07,-0.11,0.06,
3.693,0.05,-0.35,0.24,0.06,-0.10,0.06,
3.694,0.05,-0.35,0.24,0.06,-0.09,0.05,
3.694,0.05,-0.35,0.24,0.07,-0.08,0.06,
3.7,0.05,-0.35,0.24,0.08,-0.07,0.07,
3.701,-0.35,-0.44,0.67,0.08,-0.07,0.07,
3.701,-0.35,-0.44,0.67,0.09,-0.05,0.09,
3.702,-0.35,-0.44,0.67,0.11,-0.09,0.13,
3.702,-0.35,-0.44,0.67,0.12,-0.11,0.13,
3.707,-0.35,-0.44,0.67,0.14,-0.13,0.12,
3.707,-0.35,-0.44,0.67,0.15,-0.14,0.12,
3.708,-0.16,-0.39,1.18,0.15,-0.14,0.12,
3.708,-0.16,-0.39,1.18,0.16,-0.14,0.12,
3.712,-0.16,-0.39,1.18,0.18,-0.14,0.12,
3.717,-0.16,-0.39,1.18,0.19,-0.15,0.12,
3.717,-0.16,-0.39,1.18,0.21,-0.17,0.14,
3.718,-0.16,-0.39,1.18,0.20,-0.17,0.15,
3.727,-0.55,-0.58,1.07,0.20,-0.17,0.15,
3.727,-0.55,-0.58,1.07,0.21,-0.19,0.16,
3.727,-0.55,-0.58,1.07,0.24,-0.20,0.16,
3.728,-0.55,-0.58,1.07,0.24,-0.20,0.16,
3.728,-0.55,-0.58,1.07,0.25,-0.20,0.16,
3.729,-0.55,-0.58,1.07,0.26,-0.20,0.16,
3.73,-0.01,-0.30,0.90,0.26,-0.20,0.16,
3.731,-0.01,-0.30,0.90,0.26,-0.20,0.15,
3.732,-0.01,-0.30,0.90,0.26,-0.21,0.14,
3.733,-0.01,-0.30,0.90,0.26,-0.22,0.14,
3.747,-0.01,-0.30,0.90,0.26,-0.23,0.13,
3.75,-0.01,-0.30,0.90,0.25,-0.23,0.12,
3.751,0.63,-0.31,0.28,0.25,-0.23,0.12,
3.752,0.63,-0.31,0.28,0.25,-0.24,0.11,
3.753,0.63,-0.31,0.28,0.23,-0.23,0.10,
3.754,0.63,-0.31,0.28,0.22,-0.22,0.09,
3.755,0.63,-0.31,0.28,0.21,-0.22,0.09,
3.755,0.63,-0.31,0.28,0.20,-0.21,0.09,
3.756,0.37,-0.22,-0.28,0.20,-0.21,0.09,
3.757,0.37,-0.22,-0.28,0.19,-0.21,0.09,
3.758,0.37,-0.22,-0.28,0.19,-0.20,0.08,
3.759,0.37,-0.22,-0.28,0.18,-0.20,0.08,
3.76,0.37,-0.22,-0.28,0.18,-0.19,0.08,
3.761,0.37,-0.22,-0.28,0.17,-0.19,0.06,
3.762,0.65,-0.19,-0.19,0.17,-0.19,0.06,
3.763,0.65,-0.19,-0.19,0.16,-0.17,0.05,
3.764,0.65,-0.19,-0.19,0.16,-0.16,0.03,
3.764,0.65,-0.19,-0.19,0.16,-0.15,0.03,
3.765,0.65,-0.19,-0.19,0.16,-0.13,0.02,
3.77,0.65,-0.19,-0.19,0.16,-0.12,0.01,
3.771,0.71,-0.19,0.03,0.16,-0.12,0.01,
3.771,0.71,-0.19,0.03,0.15,-0.10,0.00,
3.771,0.71,-0.19,0.03,0.15,-0.09,0.01,
3.772,0.71,-0.19,0.03,0.15,-0.09,0.01,
3.774,0.71,-0.19,0.03,0.15,-0.08,0.01,
3.776,0.71,-0.19,0.03,0.15,-0.08,0.01,
3.778,0.03,-0.29,0.26,0.15,-0.08,0.01,
3.779,0.03,-0.29,0.26,0.15,-0.08,0.02,
3.781,0.03,-0.29,0.26,0.16,-0.07,0.02,
3.782,0.03,-0.29,0.26,0.16,-0.07,0.01,
3.786,0.03,-0.29,0.26,0.16,-0.07,0.01,
3.787,0.03,-0.29,0.26,0.16,-0.07,0.01,
3.789,0.20,-0.37,0.39,0.16,-0.07,0.01,
3.79,0.20,-0.37,0.39,0.16,-0.07,0.01,
3.792,0.20,-0.37,0.39,0.16,-0.06,0.01,
3.793,0.20,-0.37,0.39,0.16,-0.06,0.00,
3.796,0.20,-0.37,0.39,0.16,-0.05,0.00,
3.797,0.20,-0.37,0.39,0.16,-0.04,0.01,
3.8,0.05,-0.27,0.27,0.16,-0.04,0.01,
3.801,0.05,-0.27,0.27,0.16,-0.03,0.01,
3.801,0.05,-0.27,0.27,0.16,-0.02,0.01,
3.804,0.05,-0.27,0.27,0.16,-0.01,0.01,
3.836,0.05,-0.27,0.27,0.17,-0.00,0.01,
3.836,0.05,-0.27,0.27,0.17,0.01,0.01,
3.837,0.11,-0.18,0.35,0.17,0.01,0.01,
3.837,0.11,-0.18,0.35,0.18,0.01,0.00,
3.838,0.11,-0.18,0.35,0.18,0.02,0.00,
3.838,0.11,-0.18,0.35,0.18,0.03,-0.00,
3.838,0.11,-0.18,0.35,0.18,0.03,-0.00,
3.839,0.11,-0.18,0.35,0.18,0.03,-0.00,
3.839,0.05,-0.33,0.39,0.18,0.03,-0.00,
3.84,0.05,-0.33,0.39,0.18,0.03,-0.00,
3.84,0.05,-0.33,0.39,0.19,0.03,-0.00,
3.84,0.05,-0.33,0.39,0.19,0.03,-0.00,
3.841,0.05,-0.33,0.39,0.18,0.03,-0.00,
3.841,0.05,-0.33,0.39,0.19,0.03,-0.00,
3.842,-0.00,-0.41,0.51,0.19,0.03,-0.00,
3.842,-0.00,-0.41,0.51,0.19,0.03,0.00,
3.843,-0.00,-0.41,0.51,0.20,0.03,0.01,
3.843,-0.00,-0.41,0.51,0.21,0.03,0.01,
3.843,-0.00,-0.41,0.51,0.22,0.03,0.01,
3.843,-0.00,-0.41,0.51,0.23,0.03,0.00,
3.844,0.09,-0.26,0.88,0.23,0.03,0.00,
3.844,0.09,-0.26,0.88,0.24,0.03,0.00,
3.844,0.09,-0.26,0.88,0.26,0.02,-0.00,
3.844,0.09,-0.26,0.88,0.26,0.03,-0.01,
3.845,0.09,-0.26,0.88,0.27,0.04,-0.01,
3.849,0.09,-0.26,0.88,0.28,0.03,-0.02,
3.849,0.25,-0.28,0.71,0.28,0.03,-0.02,
3.85,0.25,-0.28,0.71,0.28,0.02,-0.02,
3.851,0.25,-0.28,0.71,0.28,0.01,-0.04,
3.852,0.25,-0.28,0.71,0.28,0.00,-0.05,
3.858,0.25,-0.28,0.71,0.28,-0.00,-0.07,
3.858,0.25,-0.28,0.71,0.28,0.00,-0.09,
3.858,0.46,-0.36,0.30,0.28,0.00,-0.09,
3.859,0.46,-0.36,0.30,0.28,0.01,-0.10,
3.865,0.46,-0.36,0.30,0.28,0.02,-0.11,
3.866,0.46,-0.36,0.30,0.28,0.03,-0.10,
3.866,0.46,-0.36,0.30,0.29,0.05,-0.09,
3.866,0.46,-0.36,0.30,0.29,0.06,-0.07,
3.868,-0.21,-0.40,0.20,0.29,0.06,-0.07,
3.868,-0.21,-0.40,0.20,0.29,0.07,-0.06,
3.873,-0.21,-0.40,0.20,0.29,0.10,-0.05,
3.874,-0.21,-0.40,0.20,0.29,0.10,-0.04,
3.874,-0.21,-0.40,0.20,0.29,0.11,-0.04,
3.878,-0.21,-0.40,0.20,0.29,0.12,-0.05,
3.878,0.12,-0.33,0.40,0.29,0.12,-0.05,
3.879,0.12,-0.33,0.40,0.30,0.12,-0.06,
3.889,0.12,-0.33,0.40,0.30,0.12,-0.07,
3.89,0.12,-0.33,0.40,0.30,0.12,-0.08,
3.891,0.12,-0.33,0.40,0.30,0.12,-0.08,
3.891,0.12,-0.33,0.40,0.29,0.13,-0.09,
3.891,0.43,-0.35,0.27,0.29,0.13,-0.09,
3.891,0.43,-0.35,0.27,0.29,0.13,-0.09,
3.892,0.43,-0.35,0.27,0.29,0.15,-0.09,
3.892,0.43,-0.35,0.27,0.29,0.16,-0.10,
3.901,0.43,-0.35,0.27,0.30,0.18,-0.09,
3.902,0.43,-0.35,0.27,0.31,0.19,-0.08,
3.903,0.07,-0.22,0.41,0.31,0.19,-0.08,
3.903,0.07,-0.22,0.41,0.32,0.19,-0.08,
3.904,0.07,-0.22,0.41,0.32,0.19,-0.08,
3.904,0.07,-0.22,0.41,0.33,0.19,-0.08,
3.904,0.07,-0.22,0.41,0.33,0.19,-0.10,
3.906,0.07,-0.22,0.41,0.33,0.20,-0.12,
3.909,1.54,-0.42,0.23,0.33,0.20,-0.12,
3.911,1.54,-0.42,0.23,0.32,0.23,-0.15,
3.916,1.54,-0.42,0.23,0.26,0.31,-0.21,
3.917,1.54,-0.42,0.23,0.24,0.32,-0.23,
3.917,1.54,-0.42,0.23,0.22,0.33,-0.25,
3.918,1.54,-0.42,0.23,0.22,0.32,-0.26,
3.921,1.42,-0.44,-0.75,0.22,0.32,-0.26,
3.924,1.42,-0.44,-0.75,0.23,0.31,-0.26,
3.925,1.42,-0.44,-0.75,0.24,0.33,-0.26,
3.925,1.42,-0.44,-0.75,0.24,0.34,-0.26,
3.926,1.42,-0.44,-0.75,0.24,0.37,-0.26,
3.93,1.42,-0.44,-0.75,0.25,0.39,-0.24,
3.932,0.20,-0.13,0.34,0.25,0.39,-0.24,
3.933,0.20,-0.13,0.34,0.27,0.40,-0.22,
3.934,0.20,-0.13,0.34,0.26,0.42,-0.20,
3.935,0.20,-0.13,0.34,0.26,0.41,-0.20,
3.935,0.20,-0.13,0.34,0.26,0.40,-0.18,
3.937,0.20,-0.13,0.34,0.26,0.40,-0.17,
3.941,-0.30,-0.02,0.27,0.26,0.40,-0.17,
3.941,-0.30,-0.02,0.27,0.27,0.40,-0.14,
3.942,-0.30,-0.02,0.27,0.27,0.39,-0.12,
3.944,-0.30,-0.02,0.27,0.27,0.39,-0.10,
3.945,-0.30,-0.02,0.27,0.26,0.37,-0.06,
3.947,-0.30,-0.02,0.27,0.26,0.37,-0.05,
3.95,-0.89,-0.12,0.20,0.26,0.37,-0.05,
3.951,-0.89,-0.12,0.20,0.27,0.39,-0.04,
3.951,-0.89,-0.12,0.20,0.29,0.44,-0.04,
3.952,-0.89,-0.12,0.20,0.30,0.45,-0.04,
3.955,-0.89,-0.12,0.20,0.32,0.45,-0.04,
3.959,-0.89,-0.12,0.20,0.36,0.46,-0.05,
3.96,0.22,0.17,0.75,0.36,0.46,-0.05,
3.96,0.22,0.17,0.75,0.37,0.47,-0.05,
3.964,0.22,0.17,0.75,0.38,0.48,-0.06,
3.965,0.22,0.17,0.75,0.39,0.50,-0.07,
3.966,0.22,0.17,0.75,0.41,0.52,-0.09,
3.966,0.22,0.17,0.75,0.42,0.54,-0.09,
3.968,1.33,0.12,0.30,0.42,0.54,-0.09,
3.969,1.33,0.12,0.30,0.43,0.58,-0.09,
3.996,1.33,0.12,0.30,0.46,0.63,-0.07,
4.0,1.33,0.12,0.30,0.47,0.64,-0.06,
4.001,1.33,0.12,0.30,0.49,0.66,-0.05,
4.002,1.33,0.12,0.30,0.51,0.69,-0.03,
4.005,0.79,-0.19,0.46,0.51,0.69,-0.03,
4.005,0.79,-0.19,0.46,0.54,0.70,-0.02,
4.006,0.79,-0.19,0.46,0.58,0.69,0.02,
4.006,0.79,-0.19,0.46,0.59,0.70,0.03,
4.007,0.79,-0.19,0.46,0.62,0.73,0.04,
4.007,0.79,-0.19,0.46,0.66,0.76,0.04,
4.007,1.10,-0.71,0.33,0.66,0.76,0.04,
4.008,1.10,-0.71,0.33,0.71,0.81,0.03,
4.008,1.10,-0.71,0.33,0.81,0.82,0.04,
4.009,1.10,-0.71,0.33,0.85,0.81,0.04,
4.009,1.10,-0.71,0.33,0.94,0.81,0.05,
4.009,1.10,-0.71,0.33,1.02,0.82,0.05,
4.01,1.40,-0.73,1.19,1.02,0.82,0.05,
4.01,1.40,-0.73,1.19,1.09,0.83,0.06,
4.011,1.40,-0.73,1.19,1.19,0.88,0.09,
4.011,1.40,-0.73,1.19,1.21,0.90,0.10,
4.012,1.40,-0.73,1.19,1.26,0.95,0.13,
4.012,1.40,-0.73,1.19,1.32,1.00,0.17,
4.012,0.88,-0.84,1.32,1.32,1.00,0.17,
4.013,0.88,-0.84,1.32,1.38,1.02,0.19,
4.013,0.88,-0.84,1.32,1.46,1.04,0.24,
4.014,0.88,-0.84,1.32,1.50,1.06,0.29,
4.014,0.88,-0.84,1.32,1.57,1.04,0.40,
4.023,0.88,-0.84,1.32,1.65,1.02,0.49,
4.025,-0.64,-3.10,1.51,1.65,1.02,0.49,
4.025,-0.64,-3.10,1.51,1.73,1.05,0.59,
4.025,-0.64,-3.10,1.51,1.85,1.08,0.74,
4.026,-0.64,-3.10,1.51,1.89,1.09,0.79,
4.026,-0.64,-3.10,1.51,1.96,1.11,0.90,
4.036,-0.64,-3.10,1.51,2.02,1.13,1.01,
4.036,-0.49,-3.72,0.84,2.02,1.13,1.01,
4.037,-0.49,-3.72,0.84,2.08,1.16,1.12,
4.037,-0.49,-3.72,0.84,2.14,1.20,1.26,
4.038,-0.49,-3.72,0.84,2.15,1.20,1.30,
4.038,-0.49,-3.72,0.84,2.19,1.20,1.38,
4.038,-0.49,-3.72,0.84,2.22,1.20,1.46,
4.039,0.61,-4.84,-0.31,2.22,1.20,1.46,
4.039,0.61,-4.84,-0.31,2.25,1.21,1.54,
4.044,0.61,-4.84,-0.31,2.31,1.27,1.67,
4.044,0.61,-4.84,-0.31,2.32,1.28,1.71,
4.045,0.61,-4.84,-0.31,2.35,1.32,1.78,
4.054,0.61,-4.84,-0.31,2.38,1.36,1.85,
4.055,2.24,-5.48,-0.67,2.38,1.36,1.85,
4.056,2.24,-5.48,-0.67,2.40,1.38,1.91,
4.056,2.24,-5.48,-0.67,2.42,1.40,1.97,
4.057,2.24,-5.48,-0.67,2.43,1.41,1.98,
4.057,2.24,-5.48,-0.67,2.44,1.40,2.01,
4.057,2.24,-5.48,-0.67,2.45,1.40,2.02,
4.067,4.47,-6.49,-0.65,2.45,1.40,2.02,
4.069,4.47,-6.49,-0.65,2.45,1.41,2.02,
4.069,4.47,-6.49,-0.65,2.41,1.46,2.01,
4.07,4.47,-6.49,-0.65,2.39,1.49,2.00,
4.07,4.47,-6.49,-0.65,2.34,1.57,1.98,
4.07,4.47,-6.49,-0.65,2.28,1.69,1.96,
4.071,6.86,-7.84,-2.27,2.28,1.69,1.96,
4.072,6.86,-7.84,-2.27,2.19,1.85,1.94,
4.072,6.86,-7.84,-2.27,2.03,2.09,1.90,
4.073,6.86,-7.84,-2.27,1.97,2.18,1.88,
4.074,6.86,-7.84,-2.27,1.84,2.34,1.84,
4.079,6.86,-7.84,-2.27,1.70,2.47,1.78,
4.08,8.84,-7.84,-5.26,1.70,2.47,1.78,
4.08,8.84,-7.84,-5.26,1.58,2.59,1.70,
4.083,8.84,-7.84,-5.26,1.39,2.73,1.57,
4.084,8.84,-7.84,-5.26,1.32,2.78,1.53,
4.084,8.84,-7.84,-5.26,1.20,2.88,1.43,
4.087,8.84,-7.84,-5.26,1.07,2.97,1.33,
4.089,10.42,-6.80,-6.39,1.07,2.97,1.33,
4.091,10.42,-6.80,-6.39,0.95,3.08,1.23,
4.092,10.42,-6.80,-6.39,0.78,3.25,1.07,
4.096,10.42,-6.80,-6.39,0.73,3.31,1.01,
4.1,10.42,-6.80,-6.39,0.63,3.39,0.89,
4.1,10.42,-6.80,-6.39,0.52,3.44,0.76,
4.103,11.69,-6.15,-4.80,0.52,3.44,0.76,
4.105,11.69,-6.15,-4.80,0.42,3.46,0.62,
4.106,11.69,-6.15,-4.80,0.27,3.43,0.40,
4.106,11.69,-6.15,-4.80,0.23,3.41,0.32,
4.107,11.69,-6.15,-4.80,0.15,3.33,0.17,
4.107,11.69,-6.15,-4.80,0.09,3.25,0.03,
4.12,12.07,-5.51,-2.90,0.09,3.25,0.03,
4.125,12.07,-5.51,-2.90,0.03,3.16,-0.10,
4.125,12.07,-5.51,-2.90,-0.03,3.03,-0.26,
4.126,12.07,-5.51,-2.90,-0.05,2.99,-0.31,
4.126,12.07,-5.51,-2.90,-0.08,2.93,-0.39,
4.126,12.07,-5.51,-2.90,-0.11,2.89,-0.45,
4.127,9.96,-5.64,-2.40,-0.11,2.89,-0.45,
4.127,9.96,-5.64,-2.40,-0.14,2.88,-0.50,
4.128,9.96,-5.64,-2.40,-0.20,2.94,-0.52,
4.128,9.96,-5.64,-2.40,-0.23,2.97,-0.52,
4.128,9.96,-5.64,-2.40,-0.29,3.03,-0.51,
4.153,9.96,-5.64,-2.40,-0.35,3.08,-0.49,
4.155,7.04,-6.02,-3.54,-0.35,3.08,-0.49,
4.156,7.04,-6.02,-3.54,-0.43,3.11,-0.47,
4.158,7.04,-6.02,-3.54,-0.55,3.16,-0.43,
4.159,7.04,-6.02,-3.54,-0.60,3.16,-0.41,
4.161,7.04,-6.02,-3.54,-0.70,3.17,-0.38,
4.162,7.04,-6.02,-3.54,-0.79,3.18,-0.34,
4.197,4.86,-5.40,-4.59,-0.79,3.18,-0.34,
4.198,4.86,-5.40,-4.59,-0.89,3.18,-0.31,
4.199,4.86,-5.40,-4.59,-1.04,3.18,-0.26,
4.199,4.86,-5.40,-4.59,-1.09,3.18,-0.24,
4.2,4.86,-5.40,-4.59,-1.19,3.19,-0.21,
4.2,4.86,-5.40,-4.59,-1.27,3.20,-0.18,
4.201,4.03,-4.43,-4.36,-1.27,3.20,-0.18,
4.202,4.03,-4.43,-4.36,-1.36,3.22,-0.15,
4.203,4.03,-4.43,-4.36,-1.47,3.26,-0.11,
4.204,4.03,-4.43,-4.36,-1.51,3.28,-0.09,
4.204,4.03,-4.43,-4.36,-1.58,3.33,-0.06,
4.205,4.03,-4.43,-4.36,-1.64,3.39,-0.02,
4.205,3.84,-3.67,-3.10,-1.64,3.39,-0.02,
4.208,3.84,-3.67,-3.10,-1.69,3.47,0.01,
4.209,3.84,-3.67,-3.10,-1.77,3.58,0.07,
4.209,3.84,-3.67,-3.10,-1.79,3.62,0.09,
4.21,3.84,-3.67,-3.10,-1.84,3.70,0.13,
4.21,3.84,-3.67,-3.10,-1.89,3.78,0.17,
4.211,3.93,-3.40,-2.32,-1.89,3.78,0.17,
4.211,3.93,-3.40,-2.32,-1.95,3.86,0.21,
4.212,3.93,-3.40,-2.32,-2.04,3.98,0.25,
4.212,3.93,-3.40,-2.32,-2.07,4.02,0.27,
4.212,3.93,-3.40,-2.32,-2.14,4.08,0.29,
4.213,3.93,-3.40,-2.32,-2.22,4.16,0.31,
4.213,4.19,-2.88,-2.33,-2.22,4.16,0.31,
4.214,4.19,-2.88,-2.33,-2.29,4.23,0.32,
4.214,4.19,-2.88,-2.33,-2.41,4.33,0.34,
4.215,4.19,-2.88,-2.33,-2.46,4.37,0.35,
4.215,4.19,-2.88,-2.33,-2.54,4.45,0.36,
4.216,4.19,-2.88,-2.33,-2.63,4.54,0.37,
4.216,4.26,-2.31,-2.41,-2.63,4.54,0.37,
4.216,4.26,-2.31,-2.41,-2.72,4.63,0.38,
4.217,4.26,-2.31,-2.41,-2.87,4.78,0.40,
4.217,4.26,-2.31,-2.41,-2.92,4.83,0.40,
4.217,4.26,-2.31,-2.41,-3.02,4.94,0.42,
4.222,4.26,-2.31,-2.41,-3.12,5.06,0.44,
4.225,3.41,-2.22,-2.28,-3.12,5.06,0.44,
4.226,3.41,-2.22,-2.28,-3.21,5.17,0.46,
4.227,3.41,-2.22,-2.28,-3.36,5.34,0.49,
4.227,3.41,-2.22,-2.28,-3.40,5.40,0.50,
4.227,3.41,-2.22,-2.28,-3.50,5.50,0.52,
4.228,3.41,-2.22,-2.28,-3.58,5.60,0.54,
4.228,2.44,-2.28,-1.59,-3.58,5.60,0.54,
4.229,2.44,-2.28,-1.59,-3.68,5.70,0.57,
4.229,2.44,-2.28,-1.59,-3.80,5.84,0.60,
4.229,2.44,-2.28,-1.59,-3.84,5.88,0.61,
4.23,2.44,-2.28,-1.59,-3.93,5.96,0.64,
4.23,2.44,-2.28,-1.59,-4.02,6.05,0.68,
4.23,1.33,-2.13,-0.83,-4.02,6.05,0.68,
4.231,1.33,-2.13,-0.83,-4.10,6.13,0.72,
4.231,1.33,-2.13,-0.83,-4.24,6.24,0.77,
4.231,1.33,-2.13,-0.83,-4.29,6.28,0.79,
4.232,1.33,-2.13,-0.83,-4.39,6.36,0.83,
4.232,1.33,-2.13,-0.83,-4.49,6.44,0.87,
4.233,0.43,-2.03,-0.61,-4.49,6.44,0.87,
4.233,0.43,-2.03,-0.61,-4.58,6.52,0.91,
4.233,0.43,-2.03,-0.61,-4.73,6.64,0.96,
4.234,0.43,-2.03,-0.61,-4.78,6.69,0.98,
4.234,0.43,-2.03,-0.61,-4.88,6.78,1.01,
4.238,0.43,-2.03,-0.61,-4.97,6.86,1.03,
4.24,0.25,-1.77,-0.47,-4.97,6.86,1.03,
4.24,0.25,-1.77,-0.47,-5.06,6.95,1.06,
4.244,0.25,-1.77,-0.47,-5.20,7.08,1.09,
4.245,0.25,-1.77,-0.47,-5.24,7.12,1.09,
4.245,0.25,-1.77,-0.47,-5.33,7.21,1.11,
4.249,0.25,-1.77,-0.47,-5.41,7.29,1.11,
4.249,0.92,-1.76,-0.36,-5.41,7.29,1.11,
4.25,0.92,-1.76,-0.36,-5.49,7.39,1.11,
4.252,0.92,-1.76,-0.36,-5.61,7.52,1.09,
4.253,0.92,-1.76,-0.36,-5.64,7.56,1.09,
4.255,0.92,-1.76,-0.36,-5.72,7.65,1.06,
4.256,0.92,-1.76,-0.36,-5.79,7.73,1.03,
4.259,1.79,-1.78,-0.56,-5.79,7.73,1.03,
4.26,1.79,-1.78,-0.56,-5.86,7.80,0.98,
4.264,1.79,-1.78,-0.56,-5.97,7.90,0.90,
4.266,1.79,-1.78,-0.56,-6.01,7.92,0.88,
4.266,1.79,-1.78,-0.56,-6.07,7.97,0.81,
4.266,1.79,-1.78,-0.56,-6.15,8.01,0.75,
4.269,2.28,-1.58,-0.96,-6.15,8.01,0.75,
4.27,2.28,-1.58,-0.96,-6.21,8.04,0.68,
4.272,2.28,-1.58,-0.96,-6.32,8.07,0.57,
4.273,2.28,-1.58,-0.96,-6.35,8.08,0.53,
4.288,2.28,-1.58,-0.96,-6.41,8.08,0.45,
4.289,2.28,-1.58,-0.96,-6.48,8.08,0.37,
4.289,2.35,-1.14,-1.39,-6.48,8.08,0.37,
4.29,2.35,-1.14,-1.39,-6.54,8.07,0.30,
4.29,2.35,-1.14,-1.39,-6.63,8.04,0.18,
4.29,2.35,-1.14,-1.39,-6.66,8.03,0.15,
4.291,2.35,-1.14,-1.39,-6.72,8.00,0.08,
4.291,2.35,-1.14,-1.39,-6.78,7.96,0.01,
4.292,1.65,-1.05,-1.83,-6.78,7.96,0.01,
4.292,1.65,-1.05,-1.83,-6.84,7.93,-0.05,
4.293,1.65,-1.05,-1.83,-6.93,7.87,-0.14,
4.293,1.65,-1.05,-1.83,-6.95,7.84,-0.18,
4.31,1.65,-1.05,-1.83,-7.04,7.78,-0.27,
4.311,1.65,-1.05,-1.83,-7.07,7.75,-0.30,
4.312,0.82,-1.12,-2.14,-7.07,7.75,-0.30,
4.312,0.82,-1.12,-2.14,-7.13,7.70,-0.36,
4.313,0.82,-1.12,-2.14,-7.22,7.63,-0.46,
4.313,0.82,-1.12,-2.14,-7.25,7.60,-0.49,
4.339,0.82,-1.12,-2.14,-7.30,7.54,-0.55,
4.339,0.82,-1.12,-2.14,-7.36,7.49,-0.62,
4.34,0.26,-1.33,-2.40,-7.36,7.49,-0.62,
4.34,0.26,-1.33,-2.40,-7.42,7.44,-0.69,
4.34,0.26,-1.33,-2.40,-7.51,7.36,-0.80,
4.341,0.26,-1.33,-2.40,-7.54,7.33,-0.84,
4.341,0.26,-1.33,-2.40,-7.59,7.29,-0.92,
4.341,0.26,-1.33,-2.40,-7.65,7.25,-1.00,
4.342,-0.01,-1.62,-2.57,-7.65,7.25,-1.00,
4.342,-0.01,-1.62,-2.57,-7.71,7.22,-1.08,
4.342,-0.01,-1.62,-2.57,-7.80,7.18,-1.20,
4.343,-0.01,-1.62,-2.57,-7.83,7.17,-1.25,
4.343,-0.01,-1.62,-2.57,-7.89,7.16,-1.33,
4.343,-0.01,-1.62,-2.57,-7.95,7.15,-1.42,
4.344,-0.21,-2.30,-2.92,-7.95,7.15,-1.42,
4.344,-0.21,-2.30,-2.92,-8.01,7.15,-1.51,
4.344,-0.21,-2.30,-2.92,-8.09,7.16,-1.65,
4.345,-0.21,-2.30,-2.92,-8.12,7.17,-1.70,
4.345,-0.21,-2.30,-2.92,-8.17,7.19,-1.80,
4.345,-0.21,-2.30,-2.92,-8.22,7.21,-1.90,
4.346,0.06,-2.84,-2.97,-8.22,7.21,-1.90,
4.346,0.06,-2.84,-2.97,-8.27,7.23,-2.01,
4.346,0.06,-2.84,-2.97,-8.33,7.28,-2.17,
4.347,0.06,-2.84,-2.97,-8.35,7.29,-2.23,
4.347,0.06,-2.84,-2.97,-8.39,7.32,-2.35,
4.347,0.06,-2.84,-2.97,-8.42,7.35,-2.46,
4.352,0.17,-3.37,-2.97,-8.42,7.35,-2.46,
4.353,0.17,-3.37,-2.97,-8.44,7.38,-2.58,
4.353,0.17,-3.37,-2.97,-8.46,7.42,-2.74,
4.354,0.17,-3.37,-2.97,-8.45,7.43,-2.80,
4.358,0.17,-3.37,-2.97,-8.45,7.44,-2.91,
4.359,0.17,-3.37,-2.97,-8.43,7.45,-3.02,
4.359,-0.63,-3.22,-2.19,-8.43,7.45,-3.02,
4.36,-0.63,-3.22,-2.19,-8.40,7.45,-3.14,
4.368,-0.63,-3.22,-2.19,-8.34,7.43,-3.30,
4.369,-0.63,-3.22,-2.19,-8.31,7.42,-3.35,
4.369,-0.63,-3.22,-2.19,-8.25,7.39,-3.45,
4.37,-0.63,-3.22,-2.19,-8.17,7.35,-3.55,
4.37,-1.96,-2.98,-1.12,-8.17,7.35,-3.55,
4.37,-1.96,-2.98,-1.12,-8.09,7.29,-3.65,
4.375,-1.96,-2.98,-1.12,-7.94,7.18,-3.79,
4.376,-1.96,-2.98,-1.12,-7.89,7.14,-3.83,
4.376,-1.96,-2.98,-1.12,-7.77,7.03,-3.91,
4.38,-1.96,-2.98,-1.12,-7.66,6.91,-3.98,
4.381,-3.44,-2.65,-0.15,-7.66,6.91,-3.98,
4.381,-3.44,-2.65,-0.15,-7.54,6.77,-4.04,
4.381,-3.44,-2.65,-0.15,-7.35,6.52,-4.13,
4.384,-3.44,-2.65,-0.15,-7.29,6.43,-4.15,
4.385,-3.44,-2.65,-0.15,-7.17,6.24,-4.20,
4.388,-3.44,-2.65,-0.15,-7.05,6.04,-4.24,
4.392,-4.86,-2.11,0.42,-7.05,6.04,-4.24,
4.394,-4.86,-2.11,0.42,-6.93,5.83,-4.28,
4.394,-4.86,-2.11,0.42,-6.74,5.49,-4.33,
4.395,-4.86,-2.11,0.42,-6.68,5.37,-4.34,
4.395,-4.86,-2.11,0.42,-6.56,5.13,-4.36,
4.402,-4.86,-2.11,0.42,-6.43,4.89,-4.38,
4.403,-5.76,-1.46,0.30,-6.43,4.89,-4.38,
4.404,-5.76,-1.46,0.30,-6.31,4.64,-4.40,
4.404,-5.76,-1.46,0.30,-6.13,4.26,-4.42,
4.404,-5.76,-1.46,0.30,-6.07,4.13,-4.43,
4.408,-5.76,-1.46,0.30,-5.96,3.88,-4.44,
4.408,-5.76,-1.46,0.30,-5.84,3.63,-4.45,
4.431,-6.00,-0.90,0.49,-5.84,3.63,-4.45,
4.432,-6.00,-0.90,0.49,-5.73,3.38,-4.46,
4.432,-6.00,-0.90,0.49,-5.56,3.01,-4.48,
4.433,-6.00,-0.90,0.49,-5.51,2.89,-4.49,
4.433,-6.00,-0.90,0.49,-5.40,2.65,-4.51,
4.433,-6.00,-0.90,0.49,-5.30,2.43,-4.52,
4.433,-5.38,-0.48,0.78,-5.30,2.43,-4.52,
4.434,-5.38,-0.48,0.78,-5.21,2.23,-4.54,
4.434,-5.38,-0.48,0.78,-5.09,1.96,-4.56,
4.434,-5.38,-0.48,0.78,-5.06,1.88,-4.57,
4.434,-5.38,-0.48,0.78,-4.99,1.74,-4.58,
4.434,-5.38,-0.48,0.78,-4.92,1.62,-4.58,
4.435,-4.90,-0.46,1.02,-4.92,1.62,-4.58,
4.435,-4.90,-0.46,1.02,-4.86,1.52,-4.58,
4.435,-4.90,-0.46,1.02,-4.78,1.41,-4.56,
4.435,-4.90,-0.46,1.02,-4.75,1.38,-4.55,
4.435,-4.90,-0.46,1.02,-4.71,1.32,-4.54,
4.436,-4.90,-0.46,1.02,-4.66,1.28,-4.51,
4.439,-4.48,-1.03,0.81,-4.66,1.28,-4.51,
4.439,-4.48,-1.03,0.81,-4.61,1.25,-4.49,
4.442,-4.48,-1.03,0.81,-4.54,1.23,-4.45,
4.445,-4.48,-1.03,0.81,-4.50,1.22,-4.42,
4.445,-4.48,-1.03,0.81,-4.48,1.22,-4.41,
4.447,-4.48,-1.03,0.81,-4.44,1.23,-4.38,
4.449,-4.27,-1.31,0.90,-4.44,1.23,-4.38,
4.45,-4.27,-1.31,0.90,-4.39,1.24,-4.35,
4.452,-4.27,-1.31,0.90,-4.33,1.26,-4.31,
4.453,-4.27,-1.31,0.90,-4.31,1.26,-4.30,
4.461,-4.27,-1.31,0.90,-4.20,1.30,-4.26,
4.465,-4.03,-1.20,1.31,-4.20,1.30,-4.26,
4.466,-4.03,-1.20,1.31,-4.14,1.32,-4.24,
4.467,-4.03,-1.20,1.31,-4.14,1.32,-4.24,
4.468,-4.03,-1.20,1.31,-4.03,1.35,-4.21,
4.468,-4.03,-1.20,1.31,-3.99,1.36,-4.21,
4.469,-4.03,-1.20,1.31,-3.91,1.37,-4.19,
4.469,-4.03,-1.20,1.31,-3.83,1.39,-4.18,
4.47,-3.82,-1.03,2.44,-3.83,1.39,-4.18,
4.47,-3.82,-1.03,2.44,-3.74,1.40,-4.17,
4.507,-3.82,-1.03,2.44,-3.61,1.42,-4.15,
4.508,-3.82,-1.03,2.44,-3.57,1.43,-4.15,
4.508,-3.82,-1.03,2.44,-3.48,1.45,-4.14,
4.509,-3.82,-1.03,2.44,-3.38,1.47,-4.14,
4.509,-3.52,-0.77,3.21,-3.38,1.47,-4.14,
4.51,-3.52,-0.77,3.21,-3.29,1.50,-4.13,
4.51,-3.52,-0.77,3.21,-3.15,1.55,-4.12,
4.51,-3.52,-0.77,3.21,-3.10,1.55,-4.11,
4.511,-3.52,-0.77,3.21,-3.00,1.56,-4.10,
4.511,-3.52,-0.77,3.21,-2.91,1.56,-4.09,
4.512,-3.58,-0.77,3.63,-2.91,1.56,-4.09,
4.512,-3.58,-0.77,3.63,-2.82,1.54,-4.07,
4.513,-3.58,-0.77,3.63,-2.68,1.52,-4.05,
4.513,-3.58,-0.77,3.63,-2.60,1.49,-4.03,
4.513,-3.58,-0.77,3.63,-2.55,1.48,-4.02,
4.514,-3.58,-0.77,3.63,-2.47,1.46,-4.01,
4.514,-3.22,-0.87,3.42,-2.47,1.46,-4.01,
4.515,-3.22,-0.87,3.42,-2.39,1.43,-3.99,
4.515,-3.22,-0.87,3.42,-2.29,1.41,-3.98,
4.515,-3.22,-0.87,3.42,-2.25,1.40,-3.97,
4.516,-3.22,-0.87,3.42,-2.18,1.39,-3.96,
4.516,-3.22,-0.87,3.42,-2.11,1.38,-3.95,
4.516,-2.94,-1.04,3.23,-2.11,1.38,-3.95,
4.517,-2.94,-1.04,3.23,-2.05,1.39,-3.94,
4.517,-2.94,-1.04,3.23,-1.96,1.41,-3.93,
4.517,-2.94,-1.04,3.23,-1.92,1.42,-3.92,
4.518,-2.94,-1.04,3.23,-1.86,1.44,-3.91,
4.518,-2.94,-1.04,3.23,-1.80,1.46,-3.90,
4.519,-2.79,-1.38,2.72,-1.80,1.46,-3.90,
4.519,-2.79,-1.38,2.72,-1.74,1.52,-3.90,
4.522,-2.79,-1.38,2.72,-1.64,1.79,-3.91,
4.522,-2.79,-1.38,2.72,-1.60,1.86,-3.90,
4.532,-2.79,-1.38,2.72,-1.55,1.96,-3.90,
4.534,-2.79,-1.38,2.72,-1.51,2.02,-3.87,
4.534,-3.45,-2.01,1.06,-1.51,2.02,-3.87,
4.535,-3.45,-2.01,1.06,-1.48,2.05,-3.85,
4.536,-3.45,-2.01,1.06,-1.46,2.03,-3.80,
4.536,-3.45,-2.01,1.06,-1.46,2.01,-3.78,
4.537,-3.45,-2.01,1.06,-1.46,1.96,-3.73,
4.537,-3.45,-2.01,1.06,-1.47,1.88,-3.68,
4.539,-4.06,-2.22,0.29,-1.47,1.88,-3.68,
4.54,-4.06,-2.22,0.29,-1.47,1.78,-3.63,
4.546,-4.06,-2.22,0.29,-1.49,1.61,-3.55,
4.547,-4.06,-2.22,0.29,-1.49,1.49,-3.49,
4.547,-4.06,-2.22,0.29,-1.49,1.43,-3.47,
4.547,-4.06,-2.22,0.29,-1.49,1.32,-3.42,
4.548,-4.44,-2.40,0.22,-1.49,1.32,-3.42,
4.549,-4.44,-2.40,0.22,-1.48,1.22,-3.37,
4.553,-4.44,-2.40,0.22,-1.46,1.08,-3.30,
4.553,-4.44,-2.40,0.22,-1.45,1.05,-3.28,
4.555,-4.44,-2.40,0.22,-1.44,0.98,-3.24,
4.569,-4.44,-2.40,0.22,-1.42,0.94,-3.21,
4.571,-4.16,-2.17,0.08,-1.42,0.94,-3.21,
4.572,-4.16,-2.17,0.08,-1.40,0.91,-3.18,
4.572,-4.16,-2.17,0.08,-1.35,0.91,-3.14,
4.573,-4.16,-2.17,0.08,-1.33,0.92,-3.12,
4.574,-4.16,-2.17,0.08,-1.29,0.94,-3.10,
4.575,-4.16,-2.17,0.08,-1.24,0.97,-3.09,
4.576,-3.67,-1.81,0.87,-1.24,0.97,-3.09,
4.577,-3.67,-1.81,0.87,-1.19,1.00,-3.07,
4.577,-3.67,-1.81,0.87,-1.12,1.03,-3.05,
4.578,-3.67,-1.81,0.87,-1.09,1.03,-3.05,
4.58,-3.67,-1.81,0.87,-1.04,1.04,-3.04,
4.58,-3.67,-1.81,0.87,-0.98,1.04,-3.03,
4.581,-2.41,-1.63,1.63,-0.98,1.04,-3.03,
4.581,-2.41,-1.63,1.63,-0.93,1.02,-3.03,
4.584,-2.41,-1.63,1.63,-0.84,1.00,-3.02,
4.586,-2.41,-1.63,1.63,-0.81,0.98,-3.02,
4.587,-2.41,-1.63,1.63,-0.74,0.96,-3.01,
4.588,-2.41,-1.63,1.63,-0.67,0.93,-3.01,
4.591,-1.44,-1.83,2.19,-0.67,0.93,-3.01,
4.591,-1.44,-1.83,2.19,-0.60,0.89,-3.01,
4.6,-1.44,-1.83,2.19,-0.49,0.85,-3.01,
4.601,-1.44,-1.83,2.19,-0.41,0.82,-3.02,
4.601,-1.44,-1.83,2.19,-0.37,0.81,-3.02,
4.602,-1.44,-1.83,2.19,-0.28,0.77,-3.02,
4.602,-1.16,-2.07,2.49,-0.28,0.77,-3.02,
4.602,-1.16,-2.07,2.49,-0.20,0.73,-3.02,
4.603,-1.16,-2.07,2.49,-0.06,0.64,-3.01,
4.603,-1.16,-2.07,2.49,-0.02,0.62,-3.00,
4.606,-1.16,-2.07,2.49,0.06,0.56,-2.99,
4.607,-1.16,-2.07,2.49,0.15,0.50,-2.98,
4.61,-1.81,-2.26,2.42,0.15,0.50,-2.98,
4.612,-1.81,-2.26,2.42,0.23,0.43,-2.97,
4.613,-1.81,-2.26,2.42,0.34,0.32,-2.94,
4.615,-1.81,-2.26,2.42,0.37,0.29,-2.93,
4.616,-1.81,-2.26,2.42,0.44,0.21,-2.91,
4.617,-1.81,-2.26,2.42,0.51,0.12,-2.88,
4.62,-2.62,-2.25,1.97,0.51,0.12,-2.88,
4.621,-2.62,-2.25,1.97,0.58,0.04,-2.85,
4.621,-2.62,-2.25,1.97,0.68,-0.09,-2.80,
4.623,-2.62,-2.25,1.97,0.71,-0.13,-2.78,
4.628,-2.62,-2.25,1.97,0.77,-0.23,-2.74,
4.63,-2.62,-2.25,1.97,0.84,-0.32,-2.70,
4.63,-3.47,-2.45,1.57,0.84,-0.32,-2.70,
4.631,-3.47,-2.45,1.57,0.90,-0.41,-2.65,
4.631,-3.47,-2.45,1.57,0.98,-0.55,-2.57,
4.633,-3.47,-2.45,1.57,1.01,-0.60,-2.55,
4.634,-3.47,-2.45,1.57,1.07,-0.68,-2.50,
4.637,-3.47,-2.45,1.57,1.12,-0.76,-2.44,
4.668,-3.73,-2.40,1.30,1.12,-0.76,-2.44,
4.669,-3.73,-2.40,1.30,1.17,-0.83,-2.38,
4.669,-3.73,-2.40,1.30,1.24,-0.92,-2.30,
4.67,-3.73,-2.40,1.30,1.28,-0.97,-2.25,
4.67,-3.73,-2.40,1.30,1.32,-1.02,-2.21,
4.671,-3.73,-2.40,1.30,1.34,-1.04,-2.19,
4.671,-3.49,-2.27,1.04,1.34,-1.04,-2.19,
4.671,-3.49,-2.27,1.04,1.36,-1.08,-2.15,
4.672,-3.49,-2.27,1.04,1.40,-1.13,-2.09,
4.672,-3.49,-2.27,1.04,1.40,-1.14,-2.08,
4.673,-3.49,-2.27,1.04,1.41,-1.16,-2.04,
4.673,-3.49,-2.27,1.04,1.41,-1.17,-2.02,
4.674,-2.92,-1.94,0.21,1.41,-1.17,-2.02,
4.674,-2.92,-1.94,0.21,1.41,-1.18,-1.99,
4.674,-2.92,-1.94,0.21,1.39,-1.18,-1.98,
4.675,-2.92,-1.94,0.21,1.37,-1.18,-1.97,
4.675,-2.92,-1.94,0.21,1.35,-1.19,-1.97,
4.676,-2.92,-1.94,0.21,1.33,-1.19,-1.97,
4.676,-2.33,-1.53,-0.85,1.33,-1.19,-1.97,
4.676,-2.33,-1.53,-0.85,1.30,-1.21,-1.98,
4.677,-2.33,-1.53,-0.85,1.24,-1.23,-1.99,
4.677,-2.33,-1.53,-0.85,1.20,-1.24,-1.99,
4.678,-2.33,-1.53,-0.85,1.18,-1.25,-1.99,
4.678,-2.33,-1.53,-0.85,1.14,-1.26,-1.99,
4.681,-1.83,-1.28,-1.92,1.14,-1.26,-1.99,
4.682,-1.83,-1.28,-1.92,1.09,-1.26,-1.99,
4.682,-1.83,-1.28,-1.92,1.01,-1.25,-1.98,
4.683,-1.83,-1.28,-1.92,0.96,-1.23,-1.96,
4.685,-1.83,-1.28,-1.92,0.94,-1.22,-1.96,
4.686,-1.83,-1.28,-1.92,0.90,-1.20,-1.94,
4.688,-1.94,-1.36,-2.57,0.90,-1.20,-1.94,
4.689,-1.94,-1.36,-2.57,0.85,-1.17,-1.92,
4.692,-1.94,-1.36,-2.57,0.79,-1.13,-1.88,
4.693,-1.94,-1.36,-2.57,0.75,-1.09,-1.85,
4.695,-1.94,-1.36,-2.57,0.73,-1.08,-1.84,
4.696,-1.94,-1.36,-2.57,0.70,-1.04,-1.81,
4.698,-2.36,-1.60,-2.56,0.70,-1.04,-1.81,
4.699,-2.36,-1.60,-2.56,0.66,-1.00,-1.79,
4.701,-2.36,-1.60,-2.56,0.61,-0.93,-1.76,
4.702,-2.36,-1.60,-2.56,0.58,-0.87,-1.75,
4.704,-2.36,-1.60,-2.56,0.56,-0.84,-1.74,
4.713,-2.36,-1.60,-2.56,0.53,-0.79,-1.73,
4.714,-2.56,-1.54,-1.86,0.53,-0.79,-1.73,
4.714,-2.56,-1.54,-1.86,0.50,-0.73,-1.71,
4.714,-2.56,-1.54,-1.86,0.47,-0.64,-1.69,
4.715,-2.56,-1.54,-1.86,0.46,-0.58,-1.67,
4.715,-2.56,-1.54,-1.86,0.45,-0.55,-1.66,
4.72,-2.56,-1.54,-1.86,0.44,-0.50,-1.64,
4.72,-2.55,-1.51,-0.84,0.44,-0.50,-1.64,
4.72,-2.55,-1.51,-0.84,0.43,-0.45,-1.62,
4.721,-2.55,-1.51,-0.84,0.42,-0.37,-1.59,
4.727,-2.55,-1.51,-0.84,0.41,-0.31,-1.56,
4.728,-2.55,-1.51,-0.84,0.41,-0.28,-1.55,
4.728,-2.55,-1.51,-0.84,0.41,-0.22,-1.53,
4.729,-2.69,-1.68,0.09,0.41,-0.22,-1.53,
4.729,-2.69,-1.68,0.09,0.41,-0.13,-1.51,
4.731,-2.69,-1.68,0.09,0.40,0.05,-1.50,
4.733,-2.69,-1.68,0.09,0.39,0.19,-1.49,
4.734,-2.69,-1.68,0.09,0.38,0.26,-1.48,
4.736,-2.69,-1.68,0.09,0.37,0.38,-1.47,
4.738,-2.90,-1.73,0.29,0.37,0.38,-1.47,
4.739,-2.90,-1.73,0.29,0.35,0.50,-1.46,
4.744,-2.90,-1.73,0.29,0.32,0.66,-1.43,
4.747,-2.90,-1.73,0.29,0.30,0.77,-1.41,
4.748,-2.90,-1.73,0.29,0.29,0.82,-1.39,
4.748,-2.90,-1.73,0.29,0.27,0.92,-1.36,
4.749,-3.16,-2.03,-0.36,0.27,0.92,-1.36,
4.75,-3.16,-2.03,-0.36,0.24,1.01,-1.33,
4.752,-3.16,-2.03,-0.36,0.20,1.13,-1.28,
4.753,-3.16,-2.03,-0.36,0.17,1.20,-1.24,
4.757,-3.16,-2.03,-0.36,0.15,1.23,-1.22,
4.757,-3.16,-2.03,-0.36,0.12,1.27,-1.18,
4.76,-3.08,-1.96,-1.21,0.12,1.27,-1.18,
4.764,-3.08,-1.96,-1.21,0.09,1.30,-1.14,
4.765,-3.08,-1.96,-1.21,0.05,1.33,-1.09,
4.765,-3.08,-1.96,-1.21,0.02,1.33,-1.06,
4.765,-3.08,-1.96,-1.21,-0.00,1.33,-1.05,
4.769,-3.08,-1.96,-1.21,-0.04,1.32,-1.02,
4.77,-2.76,-1.50,-1.79,-0.04,1.32,-1.02,
4.77,-2.76,-1.50,-1.79,-0.07,1.30,-1.00,
4.773,-2.76,-1.50,-1.79,-0.12,1.25,-0.98,
4.774,-2.76,-1.50,-1.79,-0.15,1.22,-0.97,
4.778,-2.76,-1.50,-1.79,-0.17,1.19,-0.97,
4.779,-2.76,-1.50,-1.79,-0.20,1.15,-0.97,
4.779,-2.04,-0.93,-2.32,-0.20,1.15,-0.97,
4.779,-2.04,-0.93,-2.32,-0.22,1.10,-0.97,
4.782,-2.04,-0.93,-2.32,-0.26,1.02,-0.98,
4.783,-2.04,-0.93,-2.32,-0.27,0.97,-0.98,
4.785,-2.04,-0.93,-2.32,-0.27,0.95,-0.98,
4.787,-2.04,-0.93,-2.32,-0.28,0.91,-0.99,
4.79,-2.13,0.06,-2.34,-0.28,0.91,-0.99,
4.793,-2.13,0.06,-2.34,-0.28,0.87,-1.00,
4.794,-2.13,0.06,-2.34,-0.28,0.82,-1.02,
4.796,-2.13,0.06,-2.34,-0.29,0.78,-1.03,
4.797,-2.13,0.06,-2.34,-0.30,0.76,-1.04,
4.797,-2.13,0.06,-2.34,-0.30,0.72,-1.06,
4.799,-1.80,0.09,-2.86,-0.30,0.72,-1.06,
4.8,-1.80,0.09,-2.86,-0.32,0.66,-1.07,
4.802,-1.80,0.09,-2.86,-0.33,0.56,-1.09,
4.803,-1.80,0.09,-2.86,-0.35,0.49,-1.11,
4.834,-1.80,0.09,-2.86,-0.36,0.46,-1.12,
4.834,-1.80,0.09,-2.86,-0.37,0.39,-1.13,
4.834,-1.50,-0.24,-3.44,-0.37,0.39,-1.13,
4.835,-1.50,-0.24,-3.44,-0.38,0.32,-1.15,
4.835,-1.50,-0.24,-3.44,-0.40,0.22,-1.16,
4.836,-1.50,-0.24,-3.44,-0.41,0.15,-1.17,
4.836,-1.50,-0.24,-3.44,-0.42,0.11,-1.17,
4.837,-1.50,-0.24,-3.44,-0.43,0.03,-1.18,
4.837,-1.33,-0.52,-3.61,-0.43,0.03,-1.18,
4.837,-1.33,-0.52,-3.61,-0.44,-0.05,-1.18,
4.838,-1.33,-0.52,-3.61,-0.46,-0.19,-1.18,
4.838,-1.33,-0.52,-3.61,-0.47,-0.28,-1.17,
4.839,-1.33,-0.52,-3.61,-0.48,-0.33,-1.16,
4.839,-1.33,-0.52,-3.61,-0.49,-0.42,-1.15,
4.839,-1.42,-0.44,-3.02,-0.49,-0.42,-1.15,
4.84,-1.42,-0.44,-3.02,-0.49,-0.50,-1.14,
4.84,-1.42,-0.44,-3.02,-0.49,-0.63,-1.13,
4.841,-1.42,-0.44,-3.02,-0.49,-0.69,-1.12,
4.841,-1.42,-0.44,-3.02,-0.47,-0.75,-1.11,
4.842,-1.42,-0.44,-3.02,-0.44,-0.79,-1.11,
4.842,-1.37,-0.41,-1.16,-0.44,-0.79,-1.11,
4.842,-1.37,-0.41,-1.16,-0.41,-0.83,-1.10,
4.843,-1.37,-0.41,-1.16,-0.35,-0.85,-1.10,
4.843,-1.37,-0.41,-1.16,-0.30,-0.87,-1.10,
4.852,-1.37,-0.41,-1.16,-0.24,-0.87,-1.10,
4.853,-1.37,-0.41,-1.16,-0.18,-0.86,-1.09,
4.853,-1.31,-0.59,1.27,-0.18,-0.86,-1.09,
4.854,-1.31,-0.59,1.27,-0.12,-0.82,-1.08,
4.854,-1.31,-0.59,1.27,-0.07,-0.76,-1.07,
4.854,-1.31,-0.59,1.27,-0.01,-0.67,-1.05,
4.873,-1.31,-0.59,1.27,0.04,-0.56,-1.03,
4.874,-1.31,-0.59,1.27,0.09,-0.44,-1.01,
4.874,-1.90,-0.75,1.45,0.09,-0.44,-1.01,
4.874,-1.90,-0.75,1.45,0.13,-0.30,-0.98,
4.874,-1.90,-0.75,1.45,0.16,-0.16,-0.95,
4.874,-1.90,-0.75,1.45,0.18,-0.01,-0.91,
4.875,-1.90,-0.75,1.45,0.18,0.16,-0.87,
4.875,-1.90,-0.75,1.45,0.17,0.33,-0.81,
4.875,-1.91,-1.18,0.65,0.17,0.33,-0.81,
4.875,-1.91,-1.18,0.65,0.15,0.48,-0.76,
4.875,-1.91,-1.18,0.65,0.12,0.61,-0.72,
4.875,-1.91,-1.18,0.65,0.10,0.71,-0.69,
4.876,-1.91,-1.18,0.65,0.07,0.79,-0.66,
4.88,-1.91,-1.18,0.65,0.06,0.85,-0.65,
4.88,-0.92,-1.60,-0.26,0.06,0.85,-0.65,
4.88,-0.92,-1.60,-0.26,0.04,0.90,-0.65,
4.883,-0.92,-1.60,-0.26,0.04,0.93,-0.65,
4.884,-0.92,-1.60,-0.26,0.04,0.97,-0.66,
4.888,-0.92,-1.60,-0.26,0.04,0.99,-0.67,
4.889,-0.92,-1.60,-0.26,0.05,0.99,-0.67,
4.889,-0.77,-1.66,-0.77,0.05,0.99,-0.67,
4.889,-0.77,-1.66,-0.77,0.06,0.97,-0.67,
4.892,-0.77,-1.66,-0.77,0.07,0.90,-0.66,
4.895,-0.77,-1.66,-0.77,0.08,0.87,-0.65,
4.896,-0.77,-1.66,-0.77,0.09,0.80,-0.64,
4.897,-0.77,-1.66,-0.77,0.09,0.71,-0.62,
4.899,-1.03,-1.27,-1.60,0.09,0.71,-0.62,
