
time,ax,ay,az,wx,wy,wz,
0.003,-2.31,-0.36,-1.28,-0.61,-0.11,0.83,
0.003,-2.55,-0.28,-1.03,-0.61,-0.11,0.83,
0.004,-2.55,-0.28,-1.03,-0.61,-0.12,0.86,
0.004,-2.55,-0.28,-1.03,-0.61,-0.12,0.90,
0.005,-2.55,-0.28,-1.03,-0.62,-0.13,0.93,
0.005,-2.55,-0.28,-1.03,-0.62,-0.14,0.96,
0.005,-2.55,-0.28,-1.03,-0.63,-0.15,0.99,
0.006,-2.27,-0.29,-1.05,-0.63,-0.15,0.99,
0.006,-2.27,-0.29,-1.05,-0.64,-0.15,1.02,
0.006,-2.27,-0.29,-1.05,-0.65,-0.16,1.04,
0.007,-2.27,-0.29,-1.05,-0.66,-0.16,1.07,
0.007,-2.27,-0.29,-1.05,-0.67,-0.17,1.09,
0.007,-2.27,-0.29,-1.05,-0.69,-0.18,1.12,
0.007,-1.63,-0.31,-1.21,-0.69,-0.18,1.12,
0.008,-1.63,-0.31,-1.21,-0.70,-0.19,1.13,
0.008,-1.63,-0.31,-1.21,-0.72,-0.20,1.15,
0.008,-1.63,-0.31,-1.21,-0.73,-0.21,1.17,
0.009,-1.63,-0.31,-1.21,-0.75,-0.22,1.18,
0.009,-1.63,-0.31,-1.21,-0.76,-0.24,1.19,
0.023,-1.11,-0.22,-1.23,-0.76,-0.24,1.19,
0.023,-1.11,-0.22,-1.23,-0.77,-0.25,1.20,
0.024,-1.11,-0.22,-1.23,-0.78,-0.26,1.21,
0.024,-1.11,-0.22,-1.23,-0.78,-0.26,1.22,
0.025,-1.11,-0.22,-1.23,-0.79,-0.27,1.23,
0.025,-1.11,-0.22,-1.23,-0.79,-0.27,1.23,
0.025,-0.54,-0.14,-0.78,-0.79,-0.27,1.23,
0.026,-0.54,-0.14,-0.78,-0.79,-0.27,1.23,
0.027,-0.54,-0.14,-0.78,-0.78,-0.28,1.23,
0.027,-0.54,-0.14,-0.78,-0.77,-0.28,1.23,
0.027,-0.54,-0.14,-0.78,-0.76,-0.29,1.23,
0.031,-0.54,-0.14,-0.78,-0.74,-0.29,1.22,
0.031,0.06,-0.25,0.07,-0.74,-0.29,1.22,
0.031,0.06,-0.25,0.07,-0.72,-0.29,1.21,
0.04,0.06,-0.25,0.07,-0.69,-0.30,1.20,
0.04,0.06,-0.25,0.07,-0.66,-0.30,1.19,
0.041,0.06,-0.25,0.07,-0.63,-0.30,1.18,
0.041,0.06,-0.25,0.07,-0.59,-0.30,1.16,
0.042,0.41,-0.25,0.99,-0.59,-0.30,1.16,
0.042,0.41,-0.25,0.99,-0.55,-0.30,1.15,
0.057,0.41,-0.25,0.99,-0.51,-0.29,1.13,
0.058,0.41,-0.25,0.99,-0.47,-0.29,1.12,
0.058,0.41,-0.25,0.99,-0.43,-0.28,1.10,
0.058,0.41,-0.25,0.99,-0.39,-0.28,1.09,
0.058,0.70,-0.12,1.57,-0.39,-0.28,1.09,
0.058,0.70,-0.12,1.57,-0.34,-0.27,1.07,
0.059,0.70,-0.12,1.57,-0.30,-0.26,1.06,
0.059,0.70,-0.12,1.57,-0.26,-0.25,1.04,
0.059,0.70,-0.12,1.57,-0.22,-0.24,1.02,
0.059,0.70,-0.12,1.57,-0.18,-0.23,1.00,
0.071,0.92,0.02,1.76,-0.18,-0.23,1.00,
0.071,0.92,0.02,1.76,-0.14,-0.22,0.98,
0.071,0.92,0.02,1.76,-0.11,-0.20,0.96,
0.071,0.92,0.02,1.76,-0.06,-0.19,0.93,
0.072,0.92,0.02,1.76,-0.05,-0.18,0.92,
0.072,0.92,0.02,1.76,-0.02,-0.17,0.91,
0.072,0.89,0.20,1.53,-0.02,-0.17,0.91,
0.072,0.89,0.20,1.53,0.00,-0.16,0.89,
0.093,0.89,0.20,1.53,0.03,-0.16,0.88,
0.095,0.89,0.20,1.53,0.06,-0.15,0.86,
0.095,0.89,0.20,1.53,0.07,-0.15,0.85,
0.096,0.89,0.20,1.53,0.08,-0.15,0.84,
0.097,0.56,0.36,1.10,0.08,-0.15,0.84,
0.098,0.56,0.36,1.10,0.10,-0.15,0.83,
0.098,0.56,0.36,1.10,0.11,-0.15,0.82,
0.099,0.56,0.36,1.10,0.13,-0.16,0.81,
0.099,0.56,0.36,1.10,0.13,-0.17,0.81,
0.1,0.56,0.36,1.10,0.14,-0.17,0.80,
0.101,0.30,0.43,0.71,0.14,-0.17,0.80,
0.102,0.30,0.43,0.71,0.14,-0.18,0.80,
0.102,0.30,0.43,0.71,0.15,-0.19,0.79,
0.103,0.30,0.43,0.71,0.15,-0.20,0.79,
0.103,0.30,0.43,0.71,0.15,-0.20,0.79,
0.104,0.30,0.43,0.71,0.16,-0.21,0.78,
0.104,0.22,0.42,0.42,0.16,-0.21,0.78,
0.105,0.22,0.42,0.42,0.16,-0.21,0.78,
0.105,0.22,0.42,0.42,0.16,-0.22,0.78,
0.106,0.22,0.42,0.42,0.16,-0.23,0.77,
0.107,0.22,0.42,0.42,0.16,-0.24,0.77,
0.122,0.22,0.42,0.42,0.15,-0.25,0.77,
0.123,0.32,0.34,0.20,0.15,-0.25,0.77,
0.124,0.32,0.34,0.20,0.15,-0.26,0.76,
0.128,0.32,0.34,0.20,0.14,-0.27,0.76,
0.129,0.32,0.34,0.20,0.13,-0.28,0.75,
0.129,0.32,0.34,0.20,0.13,-0.29,0.75,
0.13,0.32,0.34,0.20,0.12,-0.29,0.74,
0.13,0.50,0.17,0.06,0.12,-0.29,0.74,
0.131,0.50,0.17,0.06,0.12,-0.30,0.74,
0.131,0.50,0.17,0.06,0.11,-0.30,0.74,
0.131,0.50,0.17,0.06,0.10,-0.30,0.73,
0.132,0.50,0.17,0.06,0.10,-0.30,0.72,
0.132,0.50,0.17,0.06,0.09,-0.29,0.72,
0.132,0.68,0.15,-0.02,0.09,-0.29,0.72,
0.133,0.68,0.15,-0.02,0.08,-0.29,0.71,
0.133,0.68,0.15,-0.02,0.07,-0.29,0.70,
0.137,0.68,0.15,-0.02,0.06,-0.28,0.69,
0.138,0.68,0.15,-0.02,0.05,-0.28,0.69,
0.139,0.68,0.15,-0.02,0.04,-0.28,0.68,
0.151,0.75,0.22,-0.06,0.04,-0.28,0.68,
0.153,0.75,0.22,-0.06,0.03,-0.27,0.67,
0.153,0.75,0.22,-0.06,0.02,-0.27,0.66,
0.186,0.75,0.22,-0.06,0.01,-0.28,0.65,
0.186,0.75,0.22,-0.06,0.00,-0.28,0.64,
0.187,0.75,0.22,-0.06,-0.01,-0.28,0.63,
0.187,0.76,0.25,-0.05,-0.01,-0.28,0.63,
0.188,0.76,0.25,-0.05,-0.02,-0.28,0.62,
0.188,0.76,0.25,-0.05,-0.02,-0.29,0.61,
0.188,0.76,0.25,-0.05,-0.03,-0.29,0.60,
0.189,0.76,0.25,-0.05,-0.04,-0.29,0.60,
0.189,0.76,0.25,-0.05,-0.04,-0.29,0.59,
0.19,0.66,0.23,0.04,-0.04,-0.29,0.59,
0.19,0.66,0.23,0.04,-0.05,-0.29,0.58,
0.191,0.66,0.23,0.04,-0.05,-0.29,0.58,
0.191,0.66,0.23,0.04,-0.06,-0.29,0.57,
0.191,0.66,0.23,0.04,-0.07,-0.29,0.56,
0.192,0.66,0.23,0.04,-0.08,-0.29,0.56,
0.192,0.67,0.12,0.06,-0.08,-0.29,0.56,
0.192,0.67,0.12,0.06,-0.08,-0.29,0.55,
0.193,0.67,0.12,0.06,-0.09,-0.29,0.55,
0.193,0.67,0.12,0.06,-0.11,-0.29,0.54,
0.194,0.67,0.12,0.06,-0.11,-0.29,0.53,
0.194,0.67,0.12,0.06,-0.12,-0.29,0.52,
0.194,0.80,-0.05,0.02,-0.12,-0.29,0.52,
0.195,0.80,-0.05,0.02,-0.14,-0.30,0.51,
0.195,0.80,-0.05,0.02,-0.15,-0.30,0.50,
0.195,0.80,-0.05,0.02,-0.17,-0.31,0.48,
0.196,0.80,-0.05,0.02,-0.18,-0.31,0.47,
0.196,0.80,-0.05,0.02,-0.20,-0.32,0.45,
0.196,1.24,-0.20,0.04,-0.20,-0.32,0.45,
0.197,1.24,-0.20,0.04,-0.21,-0.33,0.43,
0.197,1.24,-0.20,0.04,-0.23,-0.34,0.40,
0.198,1.24,-0.20,0.04,-0.26,-0.36,0.36,
0.198,1.24,-0.20,0.04,-0.27,-0.36,0.34,
0.204,1.24,-0.20,0.04,-0.28,-0.37,0.31,
0.204,1.77,-0.19,0.22,-0.28,-0.37,0.31,
0.204,1.77,-0.19,0.22,-0.30,-0.37,0.27,
0.205,1.77,-0.19,0.22,-0.32,-0.37,0.23,
0.206,1.77,-0.19,0.22,-0.35,-0.37,0.18,
0.206,1.77,-0.19,0.22,-0.36,-0.37,0.16,
0.21,1.77,-0.19,0.22,-0.39,-0.36,0.11,
0.21,2.16,-0.12,0.31,-0.39,-0.36,0.11,
0.211,2.16,-0.12,0.31,-0.41,-0.36,0.07,
0.213,2.16,-0.12,0.31,-0.44,-0.36,0.03,
0.215,2.16,-0.12,0.31,-0.48,-0.36,-0.03,
0.216,2.16,-0.12,0.31,-0.49,-0.36,-0.05,
0.218,2.16,-0.12,0.31,-0.53,-0.36,-0.08,
0.221,2.07,-0.10,0.33,-0.53,-0.36,-0.08,
0.221,2.07,-0.10,0.33,-0.56,-0.36,-0.12,
0.223,2.07,-0.10,0.33,-0.59,-0.36,-0.15,
0.226,2.07,-0.10,0.33,-0.64,-0.36,-0.20,
0.227,2.07,-0.10,0.33,-0.65,-0.36,-0.21,
0.228,2.07,-0.10,0.33,-0.69,-0.36,-0.23,
0.231,1.68,-0.19,0.48,-0.69,-0.36,-0.23,
0.232,1.68,-0.19,0.48,-0.72,-0.36,-0.25,
0.233,1.68,-0.19,0.48,-0.75,-0.36,-0.27,
0.236,1.68,-0.19,0.48,-0.78,-0.35,-0.30,
0.236,1.68,-0.19,0.48,-0.80,-0.35,-0.30,
0.24,1.68,-0.19,0.48,-0.82,-0.34,-0.31,
0.242,1.14,-0.39,0.90,-0.82,-0.34,-0.31,
0.245,1.14,-0.39,0.90,-0.84,-0.33,-0.32,
0.245,1.14,-0.39,0.90,-0.85,-0.32,-0.32,
0.246,1.14,-0.39,0.90,-0.86,-0.29,-0.32,
0.247,1.14,-0.39,0.90,-0.87,-0.28,-0.32,
0.249,1.14,-0.39,0.90,-0.87,-0.26,-0.32,
0.251,0.80,-0.66,1.54,-0.87,-0.26,-0.32,
0.251,0.80,-0.66,1.54,-0.86,-0.23,-0.32,
0.253,0.80,-0.66,1.54,-0.86,-0.20,-0.31,
0.257,0.80,-0.66,1.54,-0.83,-0.15,-0.30,
0.258,0.80,-0.66,1.54,-0.83,-0.13,-0.29,
0.26,0.80,-0.66,1.54,-0.81,-0.08,-0.29,
0.263,0.53,-0.80,2.01,-0.81,-0.08,-0.29,
0.265,0.53,-0.80,2.01,-0.79,-0.03,-0.27,
0.266,0.53,-0.80,2.01,-0.77,0.03,-0.26,
0.267,0.53,-0.80,2.01,-0.75,0.10,-0.23,
0.267,0.53,-0.80,2.01,-0.74,0.12,-0.22,
0.269,0.53,-0.80,2.01,-0.73,0.16,-0.20,
0.271,0.13,-0.88,1.90,-0.73,0.16,-0.20,
0.272,0.13,-0.88,1.90,-0.71,0.19,-0.18,
0.273,0.13,-0.88,1.90,-0.70,0.21,-0.16,
0.28,0.13,-0.88,1.90,-0.68,0.24,-0.12,
0.282,0.13,-0.88,1.90,-0.67,0.24,-0.11,
0.283,0.13,-0.88,1.90,-0.66,0.25,-0.09,
0.283,-0.01,-0.66,1.76,-0.66,0.25,-0.09,
0.285,-0.01,-0.66,1.76,-0.64,0.26,-0.06,
0.286,-0.01,-0.66,1.76,-0.63,0.27,-0.04,
0.287,-0.01,-0.66,1.76,-0.61,0.29,0.01,
0.287,-0.01,-0.66,1.76,-0.60,0.30,0.02,
0.297,-0.01,-0.66,1.76,-0.59,0.30,0.05,
0.299,-0.10,-0.48,1.37,-0.59,0.30,0.05,
0.299,-0.10,-0.48,1.37,-0.58,0.31,0.07,
0.3,-0.10,-0.48,1.37,-0.57,0.31,0.10,
0.3,-0.10,-0.48,1.37,-0.55,0.30,0.13,
0.301,-0.10,-0.48,1.37,-0.54,0.29,0.14,
0.302,-0.10,-0.48,1.37,-0.53,0.28,0.16,
0.302,0.22,-0.52,0.92,-0.53,0.28,0.16,
0.303,0.22,-0.52,0.92,-0.52,0.26,0.18,
0.304,0.22,-0.52,0.92,-0.51,0.23,0.20,
0.319,0.22,-0.52,0.92,-0.50,0.19,0.23,
0.32,0.22,-0.52,0.92,-0.50,0.18,0.24,
0.32,0.22,-0.52,0.92,-0.50,0.14,0.26,
0.32,0.63,-0.73,0.31,-0.50,0.14,0.26,
0.346,0.63,-0.73,0.31,-0.51,0.10,0.29,
0.347,0.63,-0.73,0.31,-0.52,0.05,0.31,
0.347,0.63,-0.73,0.31,-0.56,-0.03,0.35,
0.347,0.63,-0.73,0.31,-0.57,-0.05,0.36,
0.348,0.63,-0.73,0.31,-0.61,-0.12,0.38,
0.348,0.88,-0.74,-0.80,-0.61,-0.12,0.38,
0.348,0.88,-0.74,-0.80,-0.66,-0.18,0.41,
0.349,0.88,-0.74,-0.80,-0.72,-0.25,0.43,
0.349,0.88,-0.74,-0.80,-0.81,-0.34,0.46,
0.349,0.88,-0.74,-0.80,-0.84,-0.37,0.47,
0.35,0.88,-0.74,-0.80,-0.90,-0.42,0.47,
0.35,1.10,-0.79,-1.76,-0.90,-0.42,0.47,
0.35,1.10,-0.79,-1.76,-0.95,-0.44,0.47,
0.35,1.10,-0.79,-1.76,-0.99,-0.45,0.46,
0.351,1.10,-0.79,-1.76,-1.02,-0.43,0.43,
0.351,1.10,-0.79,-1.76,-1.03,-0.42,0.41,
0.351,1.10,-0.79,-1.76,-1.03,-0.38,0.38,
0.352,1.83,-0.85,-0.91,-1.03,-0.38,0.38,
0.352,1.83,-0.85,-0.91,-1.02,-0.33,0.35,
0.352,1.83,-0.85,-0.91,-1.00,-0.27,0.31,
0.353,1.83,-0.85,-0.91,-0.94,-0.17,0.25,
0.353,1.83,-0.85,-0.91,-0.91,-0.13,0.23,
0.353,1.83,-0.85,-0.91,-0.85,-0.06,0.18,
0.356,2.15,-0.64,0.54,-0.85,-0.06,0.18,
0.356,2.15,-0.64,0.54,-0.79,0.02,0.15,
0.356,2.15,-0.64,0.54,-0.72,0.10,0.11,
0.358,2.15,-0.64,0.54,-0.60,0.20,0.06,
0.361,2.15,-0.64,0.54,-0.56,0.23,0.04,
0.361,2.15,-0.64,0.54,-0.48,0.28,0.01,
0.361,1.85,-0.32,1.59,-0.48,0.28,0.01,
0.362,1.85,-0.32,1.59,-0.39,0.34,-0.02,
0.362,1.85,-0.32,1.59,-0.31,0.38,-0.05,
0.366,1.85,-0.32,1.59,-0.19,0.43,-0.09,
0.368,1.85,-0.32,1.59,-0.15,0.45,-0.10,
0.369,1.85,-0.32,1.59,-0.07,0.46,-0.12,
0.373,1.55,-0.19,1.78,-0.07,0.46,-0.12,
0.373,1.55,-0.19,1.78,0.00,0.46,-0.15,
0.374,1.55,-0.19,1.78,0.07,0.46,-0.17,
0.375,1.55,-0.19,1.78,0.16,0.43,-0.20,
0.377,1.55,-0.19,1.78,0.18,0.41,-0.21,
0.379,1.55,-0.19,1.78,0.23,0.38,-0.23,
0.381,1.19,-0.18,1.17,0.23,0.38,-0.23,
0.382,1.19,-0.18,1.17,0.27,0.34,-0.25,
0.383,1.19,-0.18,1.17,0.30,0.30,-0.27,
0.386,1.19,-0.18,1.17,0.34,0.22,-0.30,
0.387,1.19,-0.18,1.17,0.35,0.19,-0.31,
0.395,1.19,-0.18,1.17,0.37,0.13,-0.32,
0.398,1.11,-0.14,0.25,0.37,0.13,-0.32,
0.398,1.11,-0.14,0.25,0.37,0.07,-0.34,
0.398,1.11,-0.14,0.25,0.37,-0.01,-0.36,
0.399,1.11,-0.14,0.25,0.37,-0.11,-0.38,
0.399,1.11,-0.14,0.25,0.36,-0.15,-0.39,
0.399,1.11,-0.14,0.25,0.36,-0.22,-0.41,
0.401,1.09,-0.08,-0.54,0.36,-0.22,-0.41,
0.402,1.09,-0.08,-0.54,0.34,-0.29,-0.43,
0.403,1.09,-0.08,-0.54,0.33,-0.36,-0.44,
0.408,1.09,-0.08,-0.54,0.30,-0.46,-0.47,
0.409,1.09,-0.08,-0.54,0.29,-0.49,-0.48,
0.41,1.09,-0.08,-0.54,0.27,-0.56,-0.50,
0.411,1.11,0.01,-0.88,0.27,-0.56,-0.50,
0.411,1.11,0.01,-0.88,0.25,-0.63,-0.52,
0.414,1.11,0.01,-0.88,0.23,-0.70,-0.55,
0.416,1.11,0.01,-0.88,0.21,-0.81,-0.58,
0.419,1.11,0.01,-0.88,0.20,-0.85,-0.59,
0.42,1.11,0.01,-0.88,0.19,-0.92,-0.61,
0.425,1.03,0.01,-0.74,0.19,-0.92,-0.61,
0.425,1.03,0.01,-0.74,0.18,-0.98,-0.64,
0.425,1.03,0.01,-0.74,0.17,-1.05,-0.66,
0.431,1.03,0.01,-0.74,0.16,-1.13,-0.69,
0.432,1.03,0.01,-0.74,0.17,-1.15,-0.70,
0.432,1.03,0.01,-0.74,0.17,-1.20,-0.71,
0.433,0.78,0.04,-0.24,0.17,-1.20,-0.71,
0.433,0.78,0.04,-0.24,0.18,-1.24,-0.73,
0.434,0.78,0.04,-0.24,0.19,-1.27,-0.74,
0.436,0.78,0.04,-0.24,0.21,-1.31,-0.76,
0.437,0.78,0.04,-0.24,0.21,-1.32,-0.76,
0.439,0.78,0.04,-0.24,0.23,-1.33,-0.77,
0.441,0.40,0.06,0.46,0.23,-1.33,-0.77,
0.441,0.40,0.06,0.46,0.26,-1.34,-0.77,
0.443,0.40,0.06,0.46,0.28,-1.34,-0.78,
0.446,0.40,0.06,0.46,0.33,-1.34,-0.78,
0.447,0.40,0.06,0.46,0.34,-1.33,-0.78,
0.45,0.40,0.06,0.46,0.37,-1.32,-0.77,
0.45,0.12,-0.13,1.08,0.37,-1.32,-0.77,
0.451,0.12,-0.13,1.08,0.40,-1.30,-0.77,
0.453,0.12,-0.13,1.08,0.44,-1.28,-0.76,
0.458,0.12,-0.13,1.08,0.51,-1.22,-0.74,
0.461,0.12,-0.13,1.08,0.51,-1.22,-0.74,
0.461,0.12,-0.13,1.08,0.55,-1.18,-0.73,
0.462,-0.14,-0.22,1.50,0.55,-1.18,-0.73,
0.462,-0.14,-0.22,1.50,0.58,-1.13,-0.71,
0.463,-0.14,-0.22,1.50,0.62,-1.08,-0.68,
0.466,-0.14,-0.22,1.50,0.66,-1.00,-0.65,
0.467,-0.14,-0.22,1.50,0.68,-0.97,-0.64,
0.469,-0.14,-0.22,1.50,0.71,-0.92,-0.62,
0.472,-0.34,-0.15,1.32,0.71,-0.92,-0.62,
0.472,-0.34,-0.15,1.32,0.73,-0.86,-0.60,
0.473,-0.34,-0.15,1.32,0.75,-0.81,-0.58,
0.477,-0.34,-0.15,1.32,0.77,-0.73,-0.55,
0.478,-0.34,-0.15,1.32,0.78,-0.70,-0.54,
0.503,-0.34,-0.15,1.32,0.79,-0.65,-0.53,
0.503,-0.27,-0.26,0.62,0.79,-0.65,-0.53,
0.504,-0.27,-0.26,0.62,0.79,-0.60,-0.51,
0.504,-0.27,-0.26,0.62,0.79,-0.56,-0.50,
0.504,-0.27,-0.26,0.62,0.78,-0.51,-0.48,
0.505,-0.27,-0.26,0.62,0.77,-0.49,-0.47,
0.505,-0.27,-0.26,0.62,0.76,-0.46,-0.46,
0.506,-0.03,-0.43,-0.21,0.76,-0.46,-0.46,
0.507,-0.03,-0.43,-0.21,0.74,-0.44,-0.46,
0.507,-0.03,-0.43,-0.21,0.72,-0.42,-0.46,
0.507,-0.03,-0.43,-0.21,0.69,-0.38,-0.44,
0.508,-0.03,-0.43,-0.21,0.68,-0.37,-0.44,
0.508,-0.03,-0.43,-0.21,0.65,-0.34,-0.42,
0.508,-0.03,-0.37,-1.01,0.65,-0.34,-0.42,
0.509,-0.03,-0.37,-1.01,0.62,-0.31,-0.41,
0.509,-0.03,-0.37,-1.01,0.59,-0.29,-0.40,
0.509,-0.03,-0.37,-1.01,0.54,-0.26,-0.38,
0.51,-0.03,-0.37,-1.01,0.52,-0.25,-0.37,
0.51,-0.03,-0.37,-1.01,0.48,-0.23,-0.35,
0.511,-0.08,-0.23,-1.72,0.48,-0.23,-0.35,
0.511,-0.08,-0.23,-1.72,0.44,-0.21,-0.34,
0.513,-0.08,-0.23,-1.72,0.40,-0.20,-0.32,
0.516,-0.08,-0.23,-1.72,0.33,-0.18,-0.28,
0.516,-0.08,-0.23,-1.72,0.31,-0.18,-0.27,
0.519,-0.08,-0.23,-1.72,0.26,-0.18,-0.25,
0.522,-0.24,-0.24,-2.38,0.26,-0.18,-0.25,
0.523,-0.24,-0.24,-2.38,0.21,-0.18,-0.22,
0.523,-0.24,-0.24,-2.38,0.17,-0.19,-0.20,
0.526,-0.24,-0.24,-2.38,0.10,-0.21,-0.17,
0.527,-0.24,-0.24,-2.38,0.08,-0.22,-0.16,
0.528,-0.24,-0.24,-2.38,0.03,-0.23,-0.14,
0.53,-0.10,-0.18,-2.53,0.03,-0.23,-0.14,
0.53,-0.10,-0.18,-2.53,-0.01,-0.22,-0.12,
0.532,-0.10,-0.18,-2.53,-0.04,-0.22,-0.09,
0.535,-0.10,-0.18,-2.53,-0.09,-0.19,-0.05,
0.538,-0.10,-0.18,-2.53,-0.11,-0.18,-0.04,
0.54,-0.10,-0.18,-2.53,-0.13,-0.15,-0.01,
0.542,-0.30,-0.03,-2.16,-0.13,-0.15,-0.01,
0.543,-0.30,-0.03,-2.16,-0.15,-0.12,0.02,
0.543,-0.30,-0.03,-2.16,-0.17,-0.09,0.05,
0.546,-0.30,-0.03,-2.16,-0.18,-0.03,0.10,
0.547,-0.30,-0.03,-2.16,-0.19,-0.01,0.11,
0.549,-0.30,-0.03,-2.16,-0.20,0.03,0.15,
0.555,-0.40,0.01,-1.34,-0.20,0.03,0.15,
0.556,-0.40,0.01,-1.34,-0.20,0.08,0.18,
0.556,-0.40,0.01,-1.34,-0.20,0.13,0.21,
0.556,-0.40,0.01,-1.34,-0.19,0.21,0.27,
0.557,-0.40,0.01,-1.34,-0.19,0.24,0.28,
0.559,-0.40,0.01,-1.34,-0.18,0.30,0.32,
0.561,-0.39,-0.06,-0.68,-0.18,0.30,0.32,
0.561,-0.39,-0.06,-0.68,-0.18,0.35,0.35,
0.563,-0.39,-0.06,-0.68,-0.17,0.41,0.38,
0.566,-0.39,-0.06,-0.68,-0.15,0.49,0.43,
0.567,-0.39,-0.06,-0.68,-0.15,0.52,0.45,
0.568,-0.39,-0.06,-0.68,-0.13,0.57,0.48,
0.577,-0.32,0.08,-0.22,-0.13,0.57,0.48,
0.578,-0.32,0.08,-0.22,-0.12,0.62,0.51,
0.578,-0.32,0.08,-0.22,-0.11,0.67,0.54,
0.578,-0.32,0.08,-0.22,-0.10,0.73,0.57,
0.578,-0.32,0.08,-0.22,-0.10,0.74,0.58,
0.579,-0.32,0.08,-0.22,-0.10,0.77,0.59,
0.585,0.06,0.39,-0.13,-0.10,0.77,0.59,
0.586,0.06,0.39,-0.13,-0.09,0.79,0.60,
0.586,0.06,0.39,-0.13,-0.10,0.82,0.61,
0.587,0.06,0.39,-0.13,-0.10,0.84,0.61,
0.587,0.06,0.39,-0.13,-0.10,0.85,0.61,
0.59,0.06,0.39,-0.13,-0.10,0.86,0.61,
0.591,0.35,0.59,-0.74,-0.10,0.86,0.61,
0.592,0.35,0.59,-0.74,-0.10,0.86,0.59,
0.593,0.35,0.59,-0.74,-0.11,0.86,0.57,
0.596,0.35,0.59,-0.74,-0.13,0.85,0.52,
0.597,0.35,0.59,-0.74,-0.14,0.85,0.50,
0.599,0.35,0.59,-0.74,-0.15,0.83,0.46,
0.601,1.14,0.84,-1.65,-0.15,0.83,0.46,
0.601,1.14,0.84,-1.65,-0.16,0.81,0.41,
0.603,1.14,0.84,-1.65,-0.18,0.78,0.35,
0.606,1.14,0.84,-1.65,-0.20,0.73,0.25,
0.607,1.14,0.84,-1.65,-0.21,0.71,0.22,
0.609,1.14,0.84,-1.65,-0.23,0.66,0.15,
0.611,1.79,1.25,-2.30,-0.23,0.66,0.15,
0.611,1.79,1.25,-2.30,-0.25,0.61,0.08,
0.613,1.79,1.25,-2.30,-0.27,0.56,0.01,
0.617,1.79,1.25,-2.30,-0.29,0.48,-0.10,
0.618,1.79,1.25,-2.30,-0.30,0.45,-0.13,
0.619,1.79,1.25,-2.30,-0.31,0.39,-0.19,
0.621,1.60,1.44,-2.58,-0.31,0.39,-0.19,
0.624,1.60,1.44,-2.58,-0.33,0.33,-0.25,
0.624,1.60,1.44,-2.58,-0.33,0.27,-0.30,
0.626,1.60,1.44,-2.58,-0.35,0.19,-0.37,
0.626,1.60,1.44,-2.58,-0.35,0.16,-0.39,
0.629,1.60,1.44,-2.58,-0.35,0.10,-0.42,
0.631,1.05,1.36,-2.31,-0.35,0.10,-0.42,
0.631,1.05,1.36,-2.31,-0.35,0.05,-0.44,
0.633,1.05,1.36,-2.31,-0.34,0.01,-0.46,
0.637,1.05,1.36,-2.31,-0.33,-0.04,-0.47,
0.638,1.05,1.36,-2.31,-0.32,-0.06,-0.47,
0.639,1.05,1.36,-2.31,-0.31,-0.09,-0.47,
0.641,0.23,1.02,-1.69,-0.31,-0.09,-0.47,
0.642,0.23,1.02,-1.69,-0.29,-0.13,-0.46,
0.643,0.23,1.02,-1.69,-0.27,-0.16,-0.45,
0.673,0.23,1.02,-1.69,-0.25,-0.21,-0.43,
0.673,0.23,1.02,-1.69,-0.23,-0.23,-0.42,
0.674,0.23,1.02,-1.69,-0.21,-0.27,-0.41,
0.674,-0.31,0.59,-1.08,-0.21,-0.27,-0.41,
0.675,-0.31,0.59,-1.08,-0.19,-0.30,-0.39,
0.675,-0.31,0.59,-1.08,-0.16,-0.34,-0.38,
0.675,-0.31,0.59,-1.08,-0.12,-0.40,-0.35,
0.675,-0.31,0.59,-1.08,-0.11,-0.42,-0.35,
0.676,-0.31,0.59,-1.08,-0.07,-0.46,-0.33,
0.676,-0.51,0.34,-0.43,-0.07,-0.46,-0.33,
0.676,-0.51,0.34,-0.43,-0.04,-0.51,-0.32,
0.677,-0.51,0.34,-0.43,-0.01,-0.56,-0.31,
0.677,-0.51,0.34,-0.43,0.04,-0.63,-0.30,
0.677,-0.51,0.34,-0.43,0.06,-0.66,-0.29,
0.677,-0.51,0.34,-0.43,0.10,-0.72,-0.29,
0.678,-0.50,0.41,-0.10,0.10,-0.72,-0.29,
0.678,-0.50,0.41,-0.10,0.13,-0.77,-0.29,
0.678,-0.50,0.41,-0.10,0.17,-0.82,-0.28,
0.678,-0.50,0.41,-0.10,0.23,-0.90,-0.29,
0.679,-0.50,0.41,-0.10,0.24,-0.93,-0.29,
0.679,-0.50,0.41,-0.10,0.28,-0.99,-0.29,
0.68,-0.25,0.50,-0.06,0.28,-0.99,-0.29,
0.681,-0.25,0.50,-0.06,0.31,-1.05,-0.30,
0.683,-0.25,0.50,-0.06,0.35,-1.11,-0.30,
0.687,-0.25,0.50,-0.06,0.39,-1.22,-0.31,
0.687,-0.25,0.50,-0.06,0.41,-1.25,-0.32,
0.689,-0.25,0.50,-0.06,0.44,-1.33,-0.33,
0.691,-0.13,0.54,0.02,0.44,-1.33,-0.33,
0.691,-0.13,0.54,0.02,0.47,-1.40,-0.34,
0.693,-0.13,0.54,0.02,0.51,-1.47,-0.35,
0.696,-0.13,0.54,0.02,0.56,-1.57,-0.36,
0.696,-0.13,0.54,0.02,0.57,-1.59,-0.37,
0.699,-0.13,0.54,0.02,0.61,-1.65,-0.37,
0.7,-0.13,0.55,0.27,0.61,-1.65,-0.37,
0.701,-0.13,0.55,0.27,0.65,-1.69,-0.38,
0.71,-0.13,0.55,0.27,0.70,-1.73,-0.38,
0.711,-0.13,0.55,0.27,0.76,-1.77,-0.39,
0.712,-0.13,0.55,0.27,0.78,-1.78,-0.39,
0.712,-0.13,0.55,0.27,0.83,-1.79,-0.39,
0.713,-0.07,0.47,0.39,0.83,-1.79,-0.39,
0.713,-0.07,0.47,0.39,0.87,-1.80,-0.39,
0.714,-0.07,0.47,0.39,0.92,-1.81,-0.39,
0.737,-0.07,0.47,0.39,0.99,-1.80,-0.39,
0.738,-0.07,0.47,0.39,1.01,-1.80,-0.39,
0.738,-0.07,0.47,0.39,1.05,-1.79,-0.38,
0.738,-0.07,0.28,0.36,1.05,-1.79,-0.38,
0.738,-0.07,0.28,0.36,1.11,-1.77,-0.37,
0.739,-0.07,0.28,0.36,1.12,-1.76,-0.37,
0.739,-0.07,0.28,0.36,1.17,-1.73,-0.35,
0.739,-0.07,0.28,0.36,1.18,-1.72,-0.34,
0.74,-0.07,0.28,0.36,1.20,-1.69,-0.33,
0.74,-0.14,0.26,-0.11,1.20,-1.69,-0.33,
0.74,-0.14,0.26,-0.11,1.22,-1.66,-0.32,
0.74,-0.14,0.26,-0.11,1.23,-1.63,-0.30,
0.741,-0.14,0.26,-0.11,1.23,-1.58,-0.28,
0.741,-0.14,0.26,-0.11,1.22,-1.57,-0.27,
0.741,-0.14,0.26,-0.11,1.21,-1.55,-0.26,
0.742,-0.25,0.21,-0.87,1.21,-1.55,-0.26,
0.742,-0.25,0.21,-0.87,1.19,-1.53,-0.25,
0.743,-0.25,0.21,-0.87,1.17,-1.51,-0.23,
0.746,-0.25,0.21,-0.87,1.13,-1.49,-0.22,
0.746,-0.25,0.21,-0.87,1.11,-1.48,-0.21,
0.749,-0.25,0.21,-0.87,1.07,-1.47,-0.20,
0.75,-0.31,0.22,-1.47,1.07,-1.47,-0.20,
0.751,-0.31,0.22,-1.47,1.03,-1.45,-0.19,
0.754,-0.31,0.22,-1.47,0.99,-1.43,-0.18,
0.756,-0.31,0.22,-1.47,0.94,-1.41,-0.16,
0.757,-0.31,0.22,-1.47,0.92,-1.40,-0.15,
0.759,-0.31,0.22,-1.47,0.87,-1.37,-0.14,
0.761,-0.44,0.30,-1.57,0.87,-1.37,-0.14,
0.761,-0.44,0.30,-1.57,0.83,-1.34,-0.12,
0.763,-0.44,0.30,-1.57,0.79,-1.32,-0.11,
0.766,-0.44,0.30,-1.57,0.73,-1.27,-0.09,
0.767,-0.44,0.30,-1.57,0.71,-1.26,-0.08,
0.77,-0.44,0.30,-1.57,0.67,-1.23,-0.07,
0.775,-0.41,0.24,-1.10,0.67,-1.23,-0.07,
0.776,-0.41,0.24,-1.10,0.64,-1.21,-0.05,
0.777,-0.41,0.24,-1.10,0.62,-1.19,-0.04,
0.778,-0.41,0.24,-1.10,0.59,-1.17,-0.02,
0.778,-0.41,0.24,-1.10,0.59,-1.16,-0.02,
0.779,-0.41,0.24,-1.10,0.58,-1.14,-0.01,
0.781,-0.13,0.22,-0.11,0.58,-1.14,-0.01,
0.782,-0.13,0.22,-0.11,0.57,-1.13,-0.01,
0.783,-0.13,0.22,-0.11,0.57,-1.11,-0.00,
0.787,-0.13,0.22,-0.11,0.58,-1.09,0.01,
0.788,-0.13,0.22,-0.11,0.58,-1.08,0.01,
0.789,-0.13,0.22,-0.11,0.59,-1.07,0.01,
0.792,0.05,0.40,0.89,0.59,-1.07,0.01,
0.792,0.05,0.40,0.89,0.59,-1.05,0.01,
0.797,0.05,0.40,0.89,0.60,-1.02,0.01,
0.797,0.05,0.40,0.89,0.61,-0.98,-0.00,
0.798,0.05,0.40,0.89,0.61,-0.96,-0.01,
0.799,0.05,0.40,0.89,0.62,-0.91,-0.03,
0.801,0.71,0.35,1.33,0.62,-0.91,-0.03,
0.802,0.71,0.35,1.33,0.63,-0.86,-0.04,
0.805,0.71,0.35,1.33,0.63,-0.80,-0.06,
0.806,0.71,0.35,1.33,0.63,-0.69,-0.09,
0.807,0.71,0.35,1.33,0.63,-0.65,-0.10,
0.809,0.71,0.35,1.33,0.63,-0.57,-0.12,
0.811,1.18,0.15,1.29,0.63,-0.57,-0.12,
0.841,1.18,0.15,1.29,0.62,-0.48,-0.15,
0.842,1.18,0.15,1.29,0.61,-0.39,-0.16,
0.842,1.18,0.15,1.29,0.58,-0.25,-0.19,
0.842,1.18,0.15,1.29,0.57,-0.21,-0.19,
0.843,1.18,0.15,1.29,0.54,-0.12,-0.21,
0.843,0.89,-0.08,0.90,0.54,-0.12,-0.21,
0.843,0.89,-0.08,0.90,0.51,-0.03,-0.22,
0.843,0.89,-0.08,0.90,0.48,0.05,-0.22,
0.844,0.89,-0.08,0.90,0.42,0.18,-0.23,
0.844,0.89,-0.08,0.90,0.40,0.22,-0.23,
0.844,0.89,-0.08,0.90,0.35,0.31,-0.22,
0.844,0.17,-0.22,0.34,0.35,0.31,-0.22,
0.845,0.17,-0.22,0.34,0.31,0.39,-0.22,
0.845,0.17,-0.22,0.34,0.26,0.48,-0.21,
0.845,0.17,-0.22,0.34,0.18,0.61,-0.19,
0.846,0.17,-0.22,0.34,0.16,0.65,-0.19,
0.846,0.17,-0.22,0.34,0.11,0.73,-0.18,
0.846,-0.50,-0.22,-0.26,0.11,0.73,-0.18,
0.846,-0.50,-0.22,-0.26,0.05,0.81,-0.17,
0.847,-0.50,-0.22,-0.26,-0.00,0.88,-0.16,
0.847,-0.50,-0.22,-0.26,-0.09,0.97,-0.14,
0.851,-0.50,-0.22,-0.26,-0.12,1.00,-0.14,
0.852,-0.50,-0.22,-0.26,-0.18,1.05,-0.13,
0.852,-0.67,-0.26,-0.76,-0.18,1.05,-0.13,
0.852,-0.67,-0.26,-0.76,-0.25,1.09,-0.13,
0.853,-0.67,-0.26,-0.76,-0.31,1.12,-0.13,
0.858,-0.67,-0.26,-0.76,-0.41,1.15,-0.14,
0.858,-0.67,-0.26,-0.76,-0.44,1.16,-0.14,
0.859,-0.67,-0.26,-0.76,-0.50,1.17,-0.15,
0.861,-0.50,-0.24,-0.95,-0.50,1.17,-0.15,
0.861,-0.50,-0.24,-0.95,-0.56,1.18,-0.16,
0.863,-0.50,-0.24,-0.95,-0.61,1.19,-0.17,
0.869,-0.50,-0.24,-0.95,-0.69,1.20,-0.19,
0.869,-0.50,-0.24,-0.95,-0.71,1.21,-0.19,
0.869,-0.50,-0.24,-0.95,-0.75,1.21,-0.20,
0.872,-0.58,-0.02,-0.49,-0.75,1.21,-0.20,
0.872,-0.58,-0.02,-0.49,-0.79,1.22,-0.21,
0.874,-0.58,-0.02,-0.49,-0.81,1.22,-0.22,
0.876,-0.58,-0.02,-0.49,-0.84,1.23,-0.23,
0.876,-0.58,-0.02,-0.49,-0.85,1.23,-0.24,
0.878,-0.58,-0.02,-0.49,-0.87,1.24,-0.24,
0.881,-0.88,0.20,0.30,-0.87,1.24,-0.24,
0.881,-0.88,0.20,0.30,-0.88,1.24,-0.25,
0.883,-0.88,0.20,0.30,-0.88,1.24,-0.25,
0.886,-0.88,0.20,0.30,-0.89,1.25,-0.26,
0.887,-0.88,0.20,0.30,-0.89,1.25,-0.26,
0.889,-0.88,0.20,0.30,-0.89,1.24,-0.26,
0.89,-1.16,0.22,0.92,-0.89,1.24,-0.26,
0.891,-1.16,0.22,0.92,-0.89,1.24,-0.26,
0.892,-1.16,0.22,0.92,-0.89,1.23,-0.26,
0.895,-1.16,0.22,0.92,-0.88,1.22,-0.26,
0.896,-1.16,0.22,0.92,-0.88,1.22,-0.26,
0.899,-1.16,0.22,0.92,-0.87,1.21,-0.25,
0.902,-1.48,0.21,1.58,-0.87,1.21,-0.25,
0.902,-1.48,0.21,1.58,-0.85,1.21,-0.25,
0.903,-1.48,0.21,1.58,-0.83,1.20,-0.24,
0.906,-1.48,0.21,1.58,-0.80,1.20,-0.23,
0.907,-1.48,0.21,1.58,-0.79,1.20,-0.22,
0.908,-1.48,0.21,1.58,-0.77,1.19,-0.21,
0.911,-1.61,0.17,2.29,-0.77,1.19,-0.21,
0.911,-1.61,0.17,2.29,-0.74,1.18,-0.20,
0.913,-1.61,0.17,2.29,-0.72,1.16,-0.19,
0.915,-1.61,0.17,2.29,-0.69,1.13,-0.18,
0.917,-1.61,0.17,2.29,-0.68,1.12,-0.17,
0.919,-1.61,0.17,2.29,-0.66,1.10,-0.17,
0.921,-1.57,0.07,2.60,-0.66,1.10,-0.17,
0.921,-1.57,0.07,2.60,-0.64,1.07,-0.16,
0.922,-1.57,0.07,2.60,-0.63,1.04,-0.15,
0.926,-1.57,0.07,2.60,-0.61,1.01,-0.14,
0.926,-1.57,0.07,2.60,-0.61,0.99,-0.14,
0.928,-1.57,0.07,2.60,-0.60,0.96,-0.13,
0.93,-1.67,0.02,2.65,-0.60,0.96,-0.13,
0.931,-1.67,0.02,2.65,-0.60,0.93,-0.12,
0.932,-1.67,0.02,2.65,-0.59,0.90,-0.12,
0.936,-1.67,0.02,2.65,-0.59,0.84,-0.11,
0.937,-1.67,0.02,2.65,-0.59,0.82,-0.10,
0.94,-1.67,0.02,2.65,-0.59,0.77,-0.10,
0.941,-1.50,-0.05,2.80,-0.59,0.77,-0.10,
0.942,-1.50,-0.05,2.80,-0.60,0.73,-0.09,
0.942,-1.50,-0.05,2.80,-0.60,0.68,-0.08,
0.945,-1.50,-0.05,2.80,-0.59,0.61,-0.07,
0.946,-1.50,-0.05,2.80,-0.59,0.58,-0.07,
0.948,-1.50,-0.05,2.80,-0.59,0.54,-0.07,
0.957,-1.29,-0.05,3.27,-0.59,0.54,-0.07,
0.958,-1.29,-0.05,3.27,-0.59,0.50,-0.07,
0.958,-1.29,-0.05,3.27,-0.58,0.46,-0.06,
0.959,-1.29,-0.05,3.27,-0.57,0.40,-0.06,
0.959,-1.29,-0.05,3.27,-0.56,0.38,-0.05,
0.962,-1.29,-0.05,3.27,-0.55,0.35,-0.05,
0.963,-0.92,0.09,3.88,-0.55,0.35,-0.05,
0.963,-0.92,0.09,3.88,-0.53,0.32,-0.05,
0.964,-0.92,0.09,3.88,-0.52,0.30,-0.05,
0.966,-0.92,0.09,3.88,-0.49,0.26,-0.06,
0.971,-0.92,0.09,3.88,-0.48,0.25,-0.06,
0.972,-0.92,0.09,3.88,-0.46,0.23,-0.07,
0.973,-0.53,0.09,4.34,-0.46,0.23,-0.07,
0.974,-0.53,0.09,4.34,-0.44,0.21,-0.07,
0.974,-0.53,0.09,4.34,-0.43,0.19,-0.08,
0.976,-0.53,0.09,4.34,-0.39,0.17,-0.09,
0.977,-0.53,0.09,4.34,-0.38,0.16,-0.09,
1.006,-0.53,0.09,4.34,-0.36,0.16,-0.10,
1.006,-0.23,0.07,4.59,-0.36,0.16,-0.10,
1.007,-0.23,0.07,4.59,-0.34,0.15,-0.11,
1.007,-0.23,0.07,4.59,-0.32,0.15,-0.11,
1.008,-0.23,0.07,4.59,-0.29,0.15,-0.11,
1.008,-0.23,0.07,4.59,-0.28,0.16,-0.11,
1.009,-0.23,0.07,4.59,-0.27,0.17,-0.10,
1.009,-0.25,-0.00,4.61,-0.27,0.17,-0.10,
1.01,-0.25,-0.00,4.61,-0.25,0.18,-0.10,
1.01,-0.25,-0.00,4.61,-0.23,0.19,-0.10,
1.011,-0.25,-0.00,4.61,-0.21,0.22,-0.09,
1.011,-0.25,-0.00,4.61,-0.20,0.23,-0.09,
1.011,-0.25,-0.00,4.61,-0.18,0.24,-0.08,
1.012,-0.26,-0.07,4.64,-0.18,0.24,-0.08,
1.012,-0.26,-0.07,4.64,-0.17,0.26,-0.08,
1.013,-0.26,-0.07,4.64,-0.15,0.28,-0.07,
1.013,-0.26,-0.07,4.64,-0.12,0.31,-0.07,
1.014,-0.26,-0.07,4.64,-0.11,0.32,-0.06,
1.014,-0.26,-0.07,4.64,-0.08,0.35,-0.05,
1.014,-0.28,-0.20,4.73,-0.08,0.35,-0.05,
1.015,-0.28,-0.20,4.73,-0.06,0.38,-0.04,
1.015,-0.28,-0.20,4.73,-0.03,0.41,-0.03,
1.018,-0.28,-0.20,4.73,0.01,0.46,-0.02,
1.019,-0.28,-0.20,4.73,0.03,0.48,-0.01,
1.019,-0.28,-0.20,4.73,0.06,0.51,0.00,
1.02,-0.19,-0.28,4.53,0.06,0.51,0.00,
1.021,-0.19,-0.28,4.53,0.09,0.55,0.01,
1.023,-0.19,-0.28,4.53,0.11,0.59,0.02,
1.026,-0.19,-0.28,4.53,0.15,0.64,0.03,
1.026,-0.19,-0.28,4.53,0.17,0.68,0.04,
1.028,-0.19,-0.28,4.53,0.18,0.70,0.05,
1.03,-0.04,-0.32,3.68,0.18,0.70,0.05,
1.03,-0.04,-0.32,3.68,0.21,0.73,0.05,
1.032,-0.04,-0.32,3.68,0.22,0.77,0.06,
1.036,-0.04,-0.32,3.68,0.25,0.81,0.07,
1.038,-0.04,-0.32,3.68,0.25,0.82,0.08,
1.039,-0.04,-0.32,3.68,0.27,0.84,0.08,
1.041,0.08,-0.26,2.56,0.27,0.84,0.08,
1.041,0.08,-0.26,2.56,0.28,0.86,0.09,
1.047,0.08,-0.26,2.56,0.29,0.88,0.09,
1.047,0.08,-0.26,2.56,0.31,0.90,0.11,
1.048,0.08,-0.26,2.56,0.31,0.91,0.11,
1.052,0.08,-0.26,2.56,0.33,0.92,0.12,
1.054,0.08,-0.25,1.46,0.33,0.92,0.12,
1.055,0.08,-0.25,1.46,0.34,0.92,0.13,
1.055,0.08,-0.25,1.46,0.34,0.93,0.13,
1.056,0.08,-0.25,1.46,0.36,0.92,0.14,
1.059,0.08,-0.25,1.46,0.36,0.92,0.15,
1.059,0.08,-0.25,1.46,0.37,0.91,0.16,
1.062,0.06,-0.20,0.42,0.37,0.91,0.16,
1.063,0.06,-0.20,0.42,0.37,0.90,0.16,
1.063,0.06,-0.20,0.42,0.38,0.89,0.17,
1.066,0.06,-0.20,0.42,0.38,0.86,0.17,
1.067,0.06,-0.20,0.42,0.38,0.84,0.18,
1.069,0.06,-0.20,0.42,0.39,0.82,0.18,
1.072,0.13,-0.20,-0.45,0.39,0.82,0.18,
1.073,0.13,-0.20,-0.45,0.39,0.79,0.19,
1.073,0.13,-0.20,-0.45,0.40,0.77,0.19,
1.076,0.13,-0.20,-0.45,0.40,0.73,0.19,
1.077,0.13,-0.20,-0.45,0.41,0.70,0.20,
1.082,0.13,-0.20,-0.45,0.41,0.68,0.20,
1.083,0.08,-0.19,-1.02,0.41,0.68,0.20,
1.084,0.08,-0.19,-1.02,0.42,0.65,0.20,
1.089,0.08,-0.19,-1.02,0.43,0.62,0.21,
1.09,0.08,-0.19,-1.02,0.44,0.57,0.21,
1.091,0.08,-0.19,-1.02,0.45,0.55,0.22,
1.091,0.08,-0.19,-1.02,0.46,0.51,0.22,
1.092,0.01,-0.25,-1.38,0.46,0.51,0.22,
1.092,0.01,-0.25,-1.38,0.47,0.47,0.22,
1.093,0.01,-0.25,-1.38,0.48,0.43,0.23,
1.098,0.01,-0.25,-1.38,0.50,0.37,0.23,
1.1,0.01,-0.25,-1.38,0.52,0.32,0.24,
1.102,0.01,-0.25,-1.38,0.53,0.30,0.24,
1.102,-0.16,-0.40,-1.47,0.53,0.30,0.24,
1.103,-0.16,-0.40,-1.47,0.55,0.26,0.25,
1.104,-0.16,-0.40,-1.47,0.57,0.22,0.26,
1.114,-0.16,-0.40,-1.47,0.60,0.17,0.27,
1.116,-0.16,-0.40,-1.47,0.62,0.14,0.28,
1.117,-0.16,-0.40,-1.47,0.63,0.12,0.29,
1.118,-0.37,-0.58,-1.53,0.63,0.12,0.29,
1.119,-0.37,-0.58,-1.53,0.64,0.10,0.30,
1.12,-0.37,-0.58,-1.53,0.66,0.07,0.31,
1.121,-0.37,-0.58,-1.53,0.69,0.03,0.33,
1.121,-0.37,-0.58,-1.53,0.70,0.00,0.35,
1.124,-0.37,-0.58,-1.53,0.71,-0.01,0.36,
1.125,-0.40,-0.71,-1.87,0.71,-0.01,0.36,
1.127,-0.40,-0.71,-1.87,0.72,-0.04,0.37,
1.127,-0.40,-0.71,-1.87,0.72,-0.07,0.38,
1.128,-0.40,-0.71,-1.87,0.73,-0.11,0.40,
1.128,-0.40,-0.71,-1.87,0.74,-0.14,0.41,
1.13,-0.40,-0.71,-1.87,0.74,-0.15,0.42,
1.135,-0.33,-0.77,-2.22,0.74,-0.15,0.42,
1.136,-0.33,-0.77,-2.22,0.74,-0.18,0.43,
1.136,-0.33,-0.77,-2.22,0.75,-0.20,0.45,
1.136,-0.33,-0.77,-2.22,0.76,-0.24,0.46,
1.137,-0.33,-0.77,-2.22,0.76,-0.26,0.47,
1.143,-0.33,-0.77,-2.22,0.76,-0.27,0.48,
1.144,-0.15,-0.71,-2.39,0.76,-0.27,0.48,
1.144,-0.15,-0.71,-2.39,0.76,-0.29,0.49,
1.144,-0.15,-0.71,-2.39,0.77,-0.31,0.49,
1.176,-0.15,-0.71,-2.39,0.77,-0.33,0.50,
1.176,-0.15,-0.71,-2.39,0.78,-0.35,0.50,
1.177,-0.15,-0.71,-2.39,0.78,-0.36,0.50,
1.177,0.02,-0.72,-2.46,0.78,-0.36,0.50,
1.178,0.02,-0.72,-2.46,0.78,-0.37,0.51,
1.178,0.02,-0.72,-2.46,0.78,-0.39,0.51,
1.179,0.02,-0.72,-2.46,0.78,-0.41,0.51,
1.179,0.02,-0.72,-2.46,0.79,-0.42,0.51,
1.18,0.02,-0.72,-2.46,0.79,-0.42,0.51,
1.18,0.12,-0.72,-2.56,0.79,-0.42,0.51,
1.181,0.12,-0.72,-2.56,0.79,-0.43,0.51,
1.181,0.12,-0.72,-2.56,0.79,-0.45,0.51,
1.182,0.12,-0.72,-2.56,0.78,-0.46,0.51,
1.182,0.12,-0.72,-2.56,0.78,-0.47,0.51,
1.182,0.12,-0.72,-2.56,0.78,-0.48,0.51,
1.183,0.25,-0.79,-2.70,0.78,-0.48,0.51,
1.183,0.25,-0.79,-2.70,0.77,-0.49,0.51,
1.184,0.25,-0.79,-2.70,0.77,-0.50,0.51,
1.184,0.25,-0.79,-2.70,0.76,-0.51,0.51,
1.184,0.25,-0.79,-2.70,0.76,-0.52,0.51,
1.185,0.25,-0.79,-2.70,0.76,-0.52,0.51,
1.185,0.20,-0.72,-2.72,0.76,-0.52,0.51,
1.186,0.20,-0.72,-2.72,0.76,-0.53,0.51,
1.186,0.20,-0.72,-2.72,0.75,-0.53,0.51,
1.187,0.20,-0.72,-2.72,0.75,-0.54,0.50,
1.187,0.20,-0.72,-2.72,0.75,-0.55,0.50,
1.191,0.20,-0.72,-2.72,0.75,-0.55,0.50,
1.192,0.23,-0.68,-2.71,0.75,-0.55,0.50,
1.193,0.23,-0.68,-2.71,0.75,-0.56,0.50,
1.194,0.23,-0.68,-2.71,0.74,-0.57,0.49,
1.196,0.23,-0.68,-2.71,0.74,-0.57,0.48,
1.197,0.23,-0.68,-2.71,0.74,-0.58,0.47,
1.202,0.23,-0.68,-2.71,0.74,-0.59,0.47,
1.203,0.32,-0.81,-2.67,0.74,-0.59,0.47,
1.204,0.32,-0.81,-2.67,0.73,-0.59,0.46,
1.205,0.32,-0.81,-2.67,0.73,-0.60,0.45,
1.206,0.32,-0.81,-2.67,0.73,-0.60,0.44,
1.207,0.32,-0.81,-2.67,0.73,-0.61,0.44,
1.209,0.32,-0.81,-2.67,0.73,-0.60,0.44,
1.211,0.26,-0.86,-2.55,0.73,-0.60,0.44,
1.211,0.26,-0.86,-2.55,0.73,-0.60,0.43,
1.212,0.26,-0.86,-2.55,0.73,-0.60,0.43,
1.216,0.26,-0.86,-2.55,0.73,-0.59,0.43,
1.217,0.26,-0.86,-2.55,0.73,-0.58,0.43,
1.219,0.26,-0.86,-2.55,0.73,-0.57,0.43,
1.221,0.21,-0.85,-2.47,0.73,-0.57,0.43,
1.221,0.21,-0.85,-2.47,0.73,-0.56,0.42,
1.223,0.21,-0.85,-2.47,0.72,-0.55,0.42,
1.226,0.21,-0.85,-2.47,0.72,-0.54,0.41,
1.226,0.21,-0.85,-2.47,0.71,-0.53,0.41,
1.229,0.21,-0.85,-2.47,0.71,-0.52,0.40,
1.231,0.36,-1.00,-2.44,0.71,-0.52,0.40,
1.231,0.36,-1.00,-2.44,0.70,-0.51,0.39,
1.233,0.36,-1.00,-2.44,0.69,-0.49,0.38,
1.237,0.36,-1.00,-2.44,0.68,-0.48,0.37,
1.239,0.36,-1.00,-2.44,0.68,-0.47,0.37,
1.24,0.36,-1.00,-2.44,0.67,-0.46,0.36,
1.241,0.41,-1.00,-2.39,0.67,-0.46,0.36,
1.241,0.41,-1.00,-2.39,0.66,-0.45,0.35,
1.243,0.41,-1.00,-2.39,0.66,-0.43,0.34,
1.245,0.41,-1.00,-2.39,0.65,-0.42,0.33,
1.247,0.41,-1.00,-2.39,0.64,-0.41,0.32,
1.255,0.41,-1.00,-2.39,0.64,-0.40,0.31,
1.256,0.47,-0.96,-2.31,0.64,-0.40,0.31,
1.256,0.47,-0.96,-2.31,0.63,-0.39,0.30,
1.256,0.47,-0.96,-2.31,0.63,-0.38,0.29,
1.257,0.47,-0.96,-2.31,0.62,-0.37,0.28,
1.257,0.47,-0.96,-2.31,0.61,-0.36,0.27,
1.259,0.47,-0.96,-2.31,0.61,-0.36,0.26,
1.261,0.46,-1.02,-2.27,0.61,-0.36,0.26,
1.266,0.46,-1.02,-2.27,0.60,-0.35,0.24,
1.266,0.46,-1.02,-2.27,0.59,-0.34,0.23,
1.267,0.46,-1.02,-2.27,0.59,-0.33,0.22,
1.268,0.46,-1.02,-2.27,0.58,-0.33,0.21,
1.27,0.46,-1.02,-2.27,0.58,-0.32,0.19,
1.271,0.50,-1.09,-2.23,0.58,-0.32,0.19,
1.272,0.50,-1.09,-2.23,0.57,-0.31,0.18,
1.273,0.50,-1.09,-2.23,0.56,-0.30,0.17,
1.275,0.50,-1.09,-2.23,0.56,-0.29,0.15,
1.277,0.50,-1.09,-2.23,0.55,-0.29,0.14,
1.28,0.50,-1.09,-2.23,0.54,-0.28,0.13,
1.281,0.39,-1.09,-2.29,0.54,-0.28,0.13,
1.282,0.39,-1.09,-2.29,0.54,-0.27,0.12,
1.283,0.39,-1.09,-2.29,0.53,-0.26,0.10,
1.286,0.39,-1.09,-2.29,0.52,-0.26,0.09,
1.288,0.39,-1.09,-2.29,0.51,-0.25,0.08,
1.289,0.39,-1.09,-2.29,0.50,-0.25,0.07,
1.291,0.23,-1.09,-2.45,0.50,-0.25,0.07,
1.292,0.23,-1.09,-2.45,0.49,-0.24,0.06,
1.293,0.23,-1.09,-2.45,0.48,-0.24,0.05,
1.296,0.23,-1.09,-2.45,0.47,-0.24,0.05,
1.297,0.23,-1.09,-2.45,0.46,-0.23,0.04,
1.299,0.23,-1.09,-2.45,0.44,-0.23,0.03,
1.301,-0.01,-1.11,-2.76,0.44,-0.23,0.03,
1.302,-0.01,-1.11,-2.76,0.43,-0.23,0.03,
1.303,-0.01,-1.11,-2.76,0.41,-0.24,0.02,
1.306,-0.01,-1.11,-2.76,0.39,-0.25,0.02,
1.307,-0.01,-1.11,-2.76,0.37,-0.25,0.02,
1.309,-0.01,-1.11,-2.76,0.35,-0.26,0.02,
1.31,-0.26,-1.06,-3.16,0.35,-0.26,0.02,
1.347,-0.26,-1.06,-3.16,0.33,-0.26,0.02,
1.348,-0.26,-1.06,-3.16,0.31,-0.26,0.01,
1.35,-0.26,-1.06,-3.16,0.29,-0.26,0.01,
1.351,-0.26,-1.06,-3.16,0.27,-0.26,0.02,
1.351,-0.26,-1.06,-3.16,0.25,-0.26,0.02,
1.352,-0.54,-1.12,-3.42,0.25,-0.26,0.02,
1.352,-0.54,-1.12,-3.42,0.22,-0.26,0.02,
1.353,-0.54,-1.12,-3.42,0.20,-0.26,0.02,
1.353,-0.54,-1.12,-3.42,0.17,-0.26,0.02,
1.354,-0.54,-1.12,-3.42,0.15,-0.27,0.03,
1.354,-0.54,-1.12,-3.42,0.12,-0.28,0.03,
1.355,-0.60,-1.16,-3.44,0.12,-0.28,0.03,
1.356,-0.60,-1.16,-3.44,0.09,-0.30,0.03,
1.357,-0.60,-1.16,-3.44,0.06,-0.31,0.03,
1.357,-0.60,-1.16,-3.44,0.03,-0.33,0.04,
1.358,-0.60,-1.16,-3.44,0.00,-0.36,0.04,
1.359,-0.60,-1.16,-3.44,-0.03,-0.38,0.04,
1.359,-0.62,-1.08,-3.16,-0.03,-0.38,0.04,
1.36,-0.62,-1.08,-3.16,-0.05,-0.41,0.05,
1.36,-0.62,-1.08,-3.16,-0.08,-0.43,0.05,
1.361,-0.62,-1.08,-3.16,-0.10,-0.46,0.05,
1.362,-0.62,-1.08,-3.16,-0.12,-0.48,0.05,
1.363,-0.62,-1.08,-3.16,-0.14,-0.49,0.05,
1.363,-0.38,-0.96,-2.76,-0.14,-0.49,0.05,
1.364,-0.38,-0.96,-2.76,-0.16,-0.51,0.04,
1.365,-0.38,-0.96,-2.76,-0.18,-0.52,0.04,
1.365,-0.38,-0.96,-2.76,-0.21,-0.53,0.03,
1.366,-0.38,-0.96,-2.76,-0.23,-0.54,0.03,
1.367,-0.38,-0.96,-2.76,-0.26,-0.55,0.01,
1.367,0.04,-0.87,-2.35,-0.26,-0.55,0.01,
1.368,0.04,-0.87,-2.35,-0.28,-0.56,0.00,
1.368,0.04,-0.87,-2.35,-0.31,-0.57,-0.01,
1.368,0.04,-0.87,-2.35,-0.34,-0.57,-0.03,
1.369,0.04,-0.87,-2.35,-0.37,-0.57,-0.04,
1.369,0.04,-0.87,-2.35,-0.41,-0.58,-0.06,
1.372,0.58,-0.75,-2.06,-0.41,-0.58,-0.06,
1.373,0.58,-0.75,-2.06,-0.45,-0.57,-0.08,
1.375,0.58,-0.75,-2.06,-0.48,-0.57,-0.10,
1.377,0.58,-0.75,-2.06,-0.54,-0.56,-0.13,
1.378,0.58,-0.75,-2.06,-0.56,-0.56,-0.14,
1.38,0.58,-0.75,-2.06,-0.60,-0.55,-0.16,
1.381,0.99,-0.64,-1.67,-0.60,-0.55,-0.16,
1.381,0.99,-0.64,-1.67,-0.64,-0.54,-0.18,
1.385,0.99,-0.64,-1.67,-0.67,-0.53,-0.21,
1.391,0.99,-0.64,-1.67,-0.73,-0.50,-0.25,
1.391,0.99,-0.64,-1.67,-0.75,-0.49,-0.26,
1.391,0.99,-0.64,-1.67,-0.79,-0.47,-0.30,
1.399,1.48,-0.51,-1.10,-0.79,-0.47,-0.30,
1.399,1.48,-0.51,-1.10,-0.83,-0.45,-0.33,
1.4,1.48,-0.51,-1.10,-0.87,-0.44,-0.36,
1.4,1.48,-0.51,-1.10,-0.92,-0.41,-0.42,
1.4,1.48,-0.51,-1.10,-0.94,-0.40,-0.44,
1.401,1.48,-0.51,-1.10,-0.98,-0.38,-0.48,
1.401,1.85,-0.47,-0.40,-0.98,-0.38,-0.48,
1.401,1.85,-0.47,-0.40,-1.02,-0.36,-0.52,
1.408,1.85,-0.47,-0.40,-1.05,-0.34,-0.56,
1.408,1.85,-0.47,-0.40,-1.09,-0.31,-0.61,
1.409,1.85,-0.47,-0.40,-1.11,-0.30,-0.63,
1.415,1.85,-0.47,-0.40,-1.14,-0.28,-0.66,
1.416,1.80,-0.37,0.32,-1.14,-0.28,-0.66,
1.416,1.80,-0.37,0.32,-1.16,-0.27,-0.69,
1.416,1.80,-0.37,0.32,-1.19,-0.26,-0.72,
1.416,1.80,-0.37,0.32,-1.23,-0.24,-0.76,
1.417,1.80,-0.37,0.32,-1.24,-0.24,-0.78,
1.435,1.80,-0.37,0.32,-1.26,-0.24,-0.80,
1.436,1.58,-0.45,0.97,-1.26,-0.24,-0.80,
1.436,1.58,-0.45,0.97,-1.28,-0.24,-0.82,
1.437,1.58,-0.45,0.97,-1.31,-0.24,-0.84,
1.437,1.58,-0.45,0.97,-1.34,-0.25,-0.87,
1.437,1.58,-0.45,0.97,-1.35,-0.25,-0.87,
1.438,1.58,-0.45,0.97,-1.37,-0.26,-0.89,
1.438,1.47,-0.72,1.60,-1.37,-0.26,-0.89,
1.438,1.47,-0.72,1.60,-1.38,-0.27,-0.90,
1.438,1.47,-0.72,1.60,-1.40,-0.27,-0.91,
1.439,1.47,-0.72,1.60,-1.41,-0.28,-0.92,
1.439,1.47,-0.72,1.60,-1.41,-0.28,-0.93,
1.439,1.47,-0.72,1.60,-1.41,-0.29,-0.93,
1.441,1.30,-0.75,2.62,-1.41,-0.29,-0.93,
1.444,1.30,-0.75,2.62,-1.40,-0.29,-0.94,
1.444,1.30,-0.75,2.62,-1.39,-0.29,-0.95,
1.446,1.30,-0.75,2.62,-1.36,-0.30,-0.96,
1.447,1.30,-0.75,2.62,-1.35,-0.31,-0.96,
1.452,1.30,-0.75,2.62,-1.33,-0.32,-0.97,
1.454,1.31,-0.79,3.75,-1.33,-0.32,-0.97,
1.455,1.31,-0.79,3.75,-1.31,-0.33,-0.98,
1.455,1.31,-0.79,3.75,-1.28,-0.35,-0.99,
1.457,1.31,-0.79,3.75,-1.23,-0.39,-1.01,
1.458,1.31,-0.79,3.75,-1.23,-0.39,-1.01,
1.459,1.31,-0.79,3.75,-1.20,-0.41,-1.02,
1.461,1.24,-0.74,4.49,-1.20,-0.41,-1.02,
1.462,1.24,-0.74,4.49,-1.17,-0.43,-1.02,
1.462,1.24,-0.74,4.49,-1.14,-0.45,-1.03,
1.468,1.24,-0.74,4.49,-1.09,-0.48,-1.04,
1.47,1.24,-0.74,4.49,-1.07,-0.49,-1.04,
1.472,1.24,-0.74,4.49,-1.04,-0.50,-1.04,
1.473,1.18,-0.80,4.84,-1.04,-0.50,-1.04,
1.474,1.18,-0.80,4.84,-1.02,-0.51,-1.04,
1.474,1.18,-0.80,4.84,-0.99,-0.53,-1.04,
1.476,1.18,-0.80,4.84,-0.96,-0.53,-1.05,
1.477,1.18,-0.80,4.84,-0.94,-0.53,-1.05,
1.517,1.18,-0.80,4.84,-0.92,-0.53,-1.05,
1.517,1.17,-0.84,4.84,-0.92,-0.53,-1.05,
1.518,1.17,-0.84,4.84,-0.90,-0.53,-1.05,
1.518,1.17,-0.84,4.84,-0.89,-0.52,-1.05,
1.519,1.17,-0.84,4.84,-0.87,-0.49,-1.05,
1.519,1.17,-0.84,4.84,-0.86,-0.48,-1.05,
1.519,1.17,-0.84,4.84,-0.85,-0.46,-1.05,
1.52,1.14,-0.87,4.65,-0.85,-0.46,-1.05,
1.52,1.14,-0.87,4.65,-0.84,-0.44,-1.05,
1.521,1.14,-0.87,4.65,-0.82,-0.40,-1.05,
1.521,1.14,-0.87,4.65,-0.81,-0.35,-1.05,
1.522,1.14,-0.87,4.65,-0.81,-0.34,-1.04,
1.522,1.14,-0.87,4.65,-0.80,-0.30,-1.04,
1.522,1.01,-0.85,4.39,-0.80,-0.30,-1.04,
1.523,1.01,-0.85,4.39,-0.80,-0.27,-1.04,
1.523,1.01,-0.85,4.39,-0.79,-0.23,-1.04,
1.524,1.01,-0.85,4.39,-0.80,-0.18,-1.03,
1.524,1.01,-0.85,4.39,-0.80,-0.16,-1.03,
1.524,1.01,-0.85,4.39,-0.80,-0.12,-1.02,
1.525,0.87,-0.94,3.90,-0.80,-0.12,-1.02,
1.525,0.87,-0.94,3.90,-0.81,-0.08,-1.02,
1.526,0.87,-0.94,3.90,-0.81,-0.04,-1.01,
1.526,0.87,-0.94,3.90,-0.82,0.01,-1.00,
1.527,0.87,-0.94,3.90,-0.82,0.03,-1.00,
1.527,0.87,-0.94,3.90,-0.83,0.06,-0.99,
1.527,0.72,-1.03,3.42,-0.83,0.06,-0.99,
1.528,0.72,-1.03,3.42,-0.84,0.09,-0.98,
1.528,0.72,-1.03,3.42,-0.85,0.13,-0.97,
1.529,0.72,-1.03,3.42,-0.85,0.17,-0.96,
1.529,0.72,-1.03,3.42,-0.86,0.18,-0.95,
1.529,0.72,-1.03,3.42,-0.86,0.21,-0.94,
1.534,0.62,-1.22,3.23,-0.86,0.21,-0.94,
1.535,0.62,-1.22,3.23,-0.86,0.23,-0.93,
1.535,0.62,-1.22,3.23,-0.86,0.25,-0.91,
1.538,0.62,-1.22,3.23,-0.84,0.27,-0.89,
1.538,0.62,-1.22,3.23,-0.84,0.28,-0.89,
1.538,0.62,-1.22,3.23,-0.83,0.28,-0.87,
1.543,0.48,-1.32,3.36,-0.83,0.28,-0.87,
1.543,0.48,-1.32,3.36,-0.81,0.29,-0.86,
1.543,0.48,-1.32,3.36,-0.79,0.29,-0.84,
1.548,0.48,-1.32,3.36,-0.75,0.29,-0.81,
1.548,0.48,-1.32,3.36,-0.74,0.29,-0.80,
1.548,0.48,-1.32,3.36,-0.71,0.29,-0.79,
1.552,0.32,-1.45,3.60,-0.71,0.29,-0.79,
1.553,0.32,-1.45,3.60,-0.67,0.29,-0.77,
1.554,0.32,-1.45,3.60,-0.64,0.28,-0.75,
1.558,0.32,-1.45,3.60,-0.58,0.26,-0.72,
1.559,0.32,-1.45,3.60,-0.56,0.26,-0.71,
1.559,0.32,-1.45,3.60,-0.52,0.24,-0.69,
1.564,0.19,-1.51,3.65,-0.52,0.24,-0.69,
1.565,0.19,-1.51,3.65,-0.47,0.23,-0.66,
1.565,0.19,-1.51,3.65,-0.42,0.21,-0.65,
1.571,0.19,-1.51,3.65,-0.35,0.19,-0.61,
1.572,0.19,-1.51,3.65,-0.33,0.18,-0.60,
1.572,0.19,-1.51,3.65,-0.28,0.16,-0.58,
1.573,0.11,-1.58,3.40,-0.28,0.16,-0.58,
1.573,0.11,-1.58,3.40,-0.23,0.14,-0.56,
1.573,0.11,-1.58,3.40,-0.18,0.12,-0.54,
1.58,0.11,-1.58,3.40,-0.11,0.09,-0.51,
1.58,0.11,-1.58,3.40,-0.09,0.08,-0.50,
1.581,0.11,-1.58,3.40,-0.04,0.05,-0.48,
1.593,0.12,-1.53,2.83,-0.04,0.05,-0.48,
1.595,0.12,-1.53,2.83,0.00,0.03,-0.46,
1.596,0.12,-1.53,2.83,0.05,-0.00,-0.44,
1.596,0.12,-1.53,2.83,0.11,-0.04,-0.42,
1.597,0.12,-1.53,2.83,0.14,-0.06,-0.41,
1.599,0.12,-1.53,2.83,0.18,-0.09,-0.40,
1.599,0.18,-1.45,2.17,0.18,-0.09,-0.40,
1.6,0.18,-1.45,2.17,0.22,-0.12,-0.38,
1.6,0.18,-1.45,2.17,0.26,-0.15,-0.37,
1.601,0.18,-1.45,2.17,0.31,-0.18,-0.35,
1.601,0.18,-1.45,2.17,0.33,-0.20,-0.34,
1.602,0.18,-1.45,2.17,0.37,-0.22,-0.33,
1.602,0.25,-1.23,1.37,0.37,-0.22,-0.33,
1.603,0.25,-1.23,1.37,0.40,-0.25,-0.32,
1.603,0.25,-1.23,1.37,0.42,-0.27,-0.31,
1.606,0.25,-1.23,1.37,0.46,-0.30,-0.30,
1.608,0.25,-1.23,1.37,0.48,-0.31,-0.29,
1.608,0.25,-1.23,1.37,0.50,-0.33,-0.29,
1.611,0.38,-1.11,0.46,0.50,-0.33,-0.29,
1.611,0.38,-1.11,0.46,0.51,-0.35,-0.28,
1.614,0.38,-1.11,0.46,0.52,-0.37,-0.28,
1.618,0.38,-1.11,0.46,0.54,-0.39,-0.27,
1.619,0.38,-1.11,0.46,0.54,-0.39,-0.27,
1.619,0.38,-1.11,0.46,0.55,-0.40,-0.27,
1.621,0.57,-0.94,-0.52,0.55,-0.40,-0.27,
1.622,0.57,-0.94,-0.52,0.55,-0.41,-0.27,
1.623,0.57,-0.94,-0.52,0.55,-0.42,-0.27,
1.625,0.57,-0.94,-0.52,0.54,-0.43,-0.28,
1.627,0.57,-0.94,-0.52,0.54,-0.43,-0.28,
1.629,0.57,-0.94,-0.52,0.53,-0.43,-0.29,
1.631,0.76,-0.81,-1.40,0.53,-0.43,-0.29,
1.632,0.76,-0.81,-1.40,0.52,-0.44,-0.30,
1.634,0.76,-0.81,-1.40,0.51,-0.44,-0.30,
1.635,0.76,-0.81,-1.40,0.48,-0.45,-0.32,
1.637,0.76,-0.81,-1.40,0.48,-0.45,-0.32,
1.639,0.76,-0.81,-1.40,0.46,-0.45,-0.33,
1.64,0.76,-0.65,-2.05,0.46,-0.45,-0.33,
1.641,0.76,-0.65,-2.05,0.44,-0.45,-0.34,
1.643,0.76,-0.65,-2.05,0.42,-0.45,-0.35,
1.676,0.76,-0.65,-2.05,0.40,-0.44,-0.37,
1.676,0.76,-0.65,-2.05,0.39,-0.44,-0.37,
1.677,0.76,-0.65,-2.05,0.37,-0.44,-0.38,
1.677,0.69,-0.52,-2.38,0.37,-0.44,-0.38,
1.678,0.69,-0.52,-2.38,0.36,-0.43,-0.39,
1.678,0.69,-0.52,-2.38,0.34,-0.41,-0.40,
1.678,0.69,-0.52,-2.38,0.32,-0.40,-0.41,
1.679,0.69,-0.52,-2.38,0.32,-0.39,-0.41,
1.679,0.69,-0.52,-2.38,0.31,-0.37,-0.42,
1.68,0.46,-0.43,-2.51,0.31,-0.37,-0.42,
1.68,0.46,-0.43,-2.51,0.29,-0.36,-0.43,
1.681,0.46,-0.43,-2.51,0.28,-0.34,-0.44,
1.681,0.46,-0.43,-2.51,0.27,-0.31,-0.45,
1.682,0.46,-0.43,-2.51,0.26,-0.30,-0.45,
1.682,0.46,-0.43,-2.51,0.26,-0.28,-0.45,
1.682,0.31,-0.39,-2.63,0.26,-0.28,-0.45,
1.683,0.31,-0.39,-2.63,0.25,-0.26,-0.46,
1.683,0.31,-0.39,-2.63,0.24,-0.24,-0.47,
1.684,0.31,-0.39,-2.63,0.23,-0.21,-0.48,
1.684,0.31,-0.39,-2.63,0.23,-0.21,-0.48,
1.685,0.31,-0.39,-2.63,0.23,-0.18,-0.49,
1.685,0.12,-0.32,-2.72,0.23,-0.18,-0.49,
1.685,0.12,-0.32,-2.72,0.22,-0.17,-0.50,
1.686,0.12,-0.32,-2.72,0.22,-0.15,-0.50,
1.686,0.12,-0.32,-2.72,0.22,-0.12,-0.51,
1.687,0.12,-0.32,-2.72,0.22,-0.11,-0.51,
1.689,0.12,-0.32,-2.72,0.21,-0.09,-0.52,
1.691,-0.04,-0.27,-2.94,0.21,-0.09,-0.52,
1.692,-0.04,-0.27,-2.94,0.21,-0.08,-0.52,
1.692,-0.04,-0.27,-2.94,0.21,-0.06,-0.53,
1.697,-0.04,-0.27,-2.94,0.20,-0.03,-0.54,
1.698,-0.04,-0.27,-2.94,0.19,-0.03,-0.54,
1.706,-0.04,-0.27,-2.94,0.19,-0.01,-0.55,
1.707,-0.17,-0.22,-3.26,0.19,-0.01,-0.55,
1.708,-0.17,-0.22,-3.26,0.18,0.00,-0.55,
1.708,-0.17,-0.22,-3.26,0.17,0.02,-0.56,
1.708,-0.17,-0.22,-3.26,0.15,0.03,-0.58,
1.709,-0.17,-0.22,-3.26,0.15,0.04,-0.58,
1.73,-0.17,-0.22,-3.26,0.13,0.05,-0.59,
1.731,-0.19,-0.13,-3.67,0.13,0.05,-0.59,
1.732,-0.19,-0.13,-3.67,0.12,0.06,-0.60,
1.732,-0.19,-0.13,-3.67,0.10,0.07,-0.61,
1.732,-0.19,-0.13,-3.67,0.08,0.08,-0.62,
1.732,-0.19,-0.13,-3.67,0.06,0.08,-0.63,
1.733,-0.19,-0.13,-3.67,0.05,0.09,-0.64,
1.733,-0.31,-0.07,-4.01,0.05,0.09,-0.64,
1.733,-0.31,-0.07,-4.01,0.03,0.10,-0.65,
1.734,-0.31,-0.07,-4.01,0.00,0.10,-0.66,
1.734,-0.31,-0.07,-4.01,-0.04,0.11,-0.68,
1.734,-0.31,-0.07,-4.01,-0.05,0.11,-0.68,
1.735,-0.31,-0.07,-4.01,-0.07,0.11,-0.69,
1.735,-0.42,-0.03,-4.26,-0.07,0.11,-0.69,
1.735,-0.42,-0.03,-4.26,-0.10,0.11,-0.70,
1.736,-0.42,-0.03,-4.26,-0.13,0.11,-0.71,
1.736,-0.42,-0.03,-4.26,-0.17,0.11,-0.73,
1.736,-0.42,-0.03,-4.26,-0.18,0.12,-0.73,
1.739,-0.42,-0.03,-4.26,-0.21,0.11,-0.74,
1.742,-0.62,-0.05,-4.26,-0.21,0.11,-0.74,
1.743,-0.62,-0.05,-4.26,-0.24,0.11,-0.75,
1.743,-0.62,-0.05,-4.26,-0.26,0.11,-0.75,
1.749,-0.62,-0.05,-4.26,-0.30,0.11,-0.76,
1.751,-0.62,-0.05,-4.26,-0.31,0.11,-0.77,
1.752,-0.62,-0.05,-4.26,-0.33,0.11,-0.77,
1.753,-0.78,-0.01,-3.95,-0.33,0.11,-0.77,
1.754,-0.78,-0.01,-3.95,-0.35,0.11,-0.78,
1.754,-0.78,-0.01,-3.95,-0.37,0.11,-0.78,
1.756,-0.78,-0.01,-3.95,-0.39,0.11,-0.78,
1.758,-0.78,-0.01,-3.95,-0.40,0.11,-0.78,
1.759,-0.78,-0.01,-3.95,-0.41,0.10,-0.79,
1.763,-0.94,-0.05,-3.39,-0.41,0.10,-0.79,
1.764,-0.94,-0.05,-3.39,-0.42,0.10,-0.79,
1.764,-0.94,-0.05,-3.39,-0.43,0.10,-0.78,
1.768,-0.94,-0.05,-3.39,-0.44,0.09,-0.78,
1.769,-0.94,-0.05,-3.39,-0.44,0.09,-0.78,
1.769,-0.94,-0.05,-3.39,-0.44,0.08,-0.78,
1.775,-1.11,0.00,-2.75,-0.44,0.08,-0.78,
1.776,-1.11,0.00,-2.75,-0.44,0.07,-0.78,
1.776,-1.11,0.00,-2.75,-0.44,0.07,-0.77,
1.776,-1.11,0.00,-2.75,-0.43,0.07,-0.77,
1.777,-1.11,0.00,-2.75,-0.43,0.06,-0.76,
1.783,-1.11,0.00,-2.75,-0.43,0.06,-0.76,
1.785,-1.11,0.02,-2.19,-0.43,0.06,-0.76,
1.786,-1.11,0.02,-2.19,-0.42,0.05,-0.76,
1.786,-1.11,0.02,-2.19,-0.41,0.05,-0.75,
1.787,-1.11,0.02,-2.19,-0.40,0.04,-0.74,
1.787,-1.11,0.02,-2.19,-0.40,0.04,-0.74,
1.788,-1.11,0.02,-2.19,-0.40,0.03,-0.74,
1.791,-1.08,0.12,-1.88,-0.40,0.03,-0.74,
1.792,-1.08,0.12,-1.88,-0.39,0.02,-0.73,
1.792,-1.08,0.12,-1.88,-0.39,0.01,-0.73,
1.805,-1.08,0.12,-1.88,-0.38,-0.00,-0.72,
1.807,-1.08,0.12,-1.88,-0.38,-0.01,-0.72,
1.808,-1.08,0.12,-1.88,-0.38,-0.02,-0.72,
1.808,-1.02,0.25,-1.65,-0.38,-0.02,-0.72,
1.809,-1.02,0.25,-1.65,-0.37,-0.03,-0.71,
1.81,-1.02,0.25,-1.65,-0.37,-0.04,-0.71,
1.812,-1.02,0.25,-1.65,-0.37,-0.06,-0.71,
1.812,-1.02,0.25,-1.65,-0.36,-0.07,-0.71,
1.814,-1.02,0.25,-1.65,-0.36,-0.09,-0.71,
1.814,-0.87,0.42,-1.50,-0.36,-0.09,-0.71,
1.845,-0.87,0.42,-1.50,-0.36,-0.11,-0.72,
1.846,-0.87,0.42,-1.50,-0.37,-0.13,-0.72,
1.846,-0.87,0.42,-1.50,-0.37,-0.18,-0.73,
1.847,-0.87,0.42,-1.50,-0.37,-0.19,-0.74,
1.847,-0.87,0.42,-1.50,-0.37,-0.22,-0.75,
1.848,-0.61,0.56,-1.37,-0.37,-0.22,-0.75,
1.848,-0.61,0.56,-1.37,-0.37,-0.26,-0.76,
1.848,-0.61,0.56,-1.37,-0.38,-0.30,-0.76,
1.849,-0.61,0.56,-1.37,-0.38,-0.36,-0.78,
1.849,-0.61,0.56,-1.37,-0.38,-0.37,-0.78,
1.85,-0.61,0.56,-1.37,-0.38,-0.41,-0.79,
1.85,-0.49,0.72,-1.21,-0.38,-0.41,-0.79,
1.85,-0.49,0.72,-1.21,-0.38,-0.44,-0.80,
1.851,-0.49,0.72,-1.21,-0.39,-0.47,-0.81,
1.851,-0.49,0.72,-1.21,-0.39,-0.51,-0.82,
1.851,-0.49,0.72,-1.21,-0.39,-0.53,-0.82,
1.851,-0.49,0.72,-1.21,-0.39,-0.55,-0.82,
1.852,-0.49,0.67,-0.95,-0.39,-0.55,-0.82,
1.852,-0.49,0.67,-0.95,-0.39,-0.58,-0.83,
1.852,-0.49,0.67,-0.95,-0.39,-0.60,-0.83,
1.852,-0.49,0.67,-0.95,-0.38,-0.63,-0.82,
1.853,-0.49,0.67,-0.95,-0.38,-0.64,-0.82,
1.853,-0.49,0.67,-0.95,-0.37,-0.66,-0.81,
1.853,-0.76,0.52,-0.43,-0.37,-0.66,-0.81,
1.853,-0.76,0.52,-0.43,-0.36,-0.68,-0.81,
1.856,-0.76,0.52,-0.43,-0.35,-0.69,-0.79,
1.857,-0.76,0.52,-0.43,-0.33,-0.71,-0.77,
1.857,-0.76,0.52,-0.43,-0.32,-0.71,-0.76,
1.859,-0.76,0.52,-0.43,-0.29,-0.71,-0.74,
1.86,-1.10,0.44,0.52,-0.29,-0.71,-0.74,
1.861,-1.10,0.44,0.52,-0.26,-0.71,-0.72,
1.863,-1.10,0.44,0.52,-0.24,-0.70,-0.70,
1.866,-1.10,0.44,0.52,-0.19,-0.69,-0.67,
1.867,-1.10,0.44,0.52,-0.17,-0.68,-0.66,
1.869,-1.10,0.44,0.52,-0.14,-0.66,-0.63,
1.87,-1.31,0.35,1.42,-0.14,-0.66,-0.63,
1.871,-1.31,0.35,1.42,-0.11,-0.64,-0.60,
1.873,-1.31,0.35,1.42,-0.09,-0.62,-0.57,
1.876,-1.31,0.35,1.42,-0.05,-0.60,-0.52,
1.877,-1.31,0.35,1.42,-0.04,-0.59,-0.50,
1.879,-1.31,0.35,1.42,-0.01,-0.57,-0.47,
1.881,-1.44,0.58,1.92,-0.01,-0.57,-0.47,
1.881,-1.44,0.58,1.92,0.01,-0.55,-0.43,
1.884,-1.44,0.58,1.92,0.04,-0.53,-0.40,
1.886,-1.44,0.58,1.92,0.08,-0.48,-0.36,
1.887,-1.44,0.58,1.92,0.10,-0.47,-0.35,
1.891,-1.44,0.58,1.92,0.13,-0.43,-0.33,
1.891,-1.20,0.33,2.11,0.13,-0.43,-0.33,
1.891,-1.20,0.33,2.11,0.16,-0.40,-0.31,
1.895,-1.20,0.33,2.11,0.19,-0.36,-0.29,
1.898,-1.20,0.33,2.11,0.23,-0.31,-0.27,
1.898,-1.20,0.33,2.11,0.24,-0.29,-0.27,
1.898,-1.20,0.33,2.11,0.26,-0.25,-0.26,
1.901,-0.74,0.28,1.86,0.26,-0.25,-0.26,
1.902,-0.74,0.28,1.86,0.28,-0.22,-0.25,
1.903,-0.74,0.28,1.86,0.31,-0.19,-0.24,
1.907,-0.74,0.28,1.86,0.33,-0.16,-0.23,
1.908,-0.74,0.28,1.86,0.33,-0.15,-0.23,
1.908,-0.74,0.28,1.86,0.34,-0.14,-0.23,
1.912,-0.45,0.52,1.17,0.34,-0.14,-0.23,
1.912,-0.45,0.52,1.17,0.34,-0.14,-0.22,
1.914,-0.45,0.52,1.17,0.34,-0.14,-0.23,
1.917,-0.45,0.52,1.17,0.34,-0.15,-0.23,
1.917,-0.45,0.52,1.17,0.33,-0.15,-0.23,
1.919,-0.45,0.52,1.17,0.33,-0.16,-0.23,
1.921,-0.21,0.79,0.42,0.33,-0.16,-0.23,
1.921,-0.21,0.79,0.42,0.32,-0.17,-0.24,
1.923,-0.21,0.79,0.42,0.31,-0.19,-0.24,
1.926,-0.21,0.79,0.42,0.29,-0.21,-0.26,
1.926,-0.21,0.79,0.42,0.28,-0.22,-0.26,
1.935,-0.21,0.79,0.42,0.27,-0.23,-0.27,
1.938,-0.00,0.99,-0.09,0.27,-0.23,-0.27,
1.939,-0.00,0.99,-0.09,0.25,-0.25,-0.28,
1.94,-0.00,0.99,-0.09,0.24,-0.26,-0.29,
1.943,-0.00,0.99,-0.09,0.22,-0.28,-0.30,
1.944,-0.00,0.99,-0.09,0.22,-0.29,-0.31,
1.944,-0.00,0.99,-0.09,0.20,-0.30,-0.32,
1.959,0.17,1.01,-0.15,0.20,-0.30,-0.32,
1.96,0.17,1.01,-0.15,0.19,-0.31,-0.33,
1.96,0.17,1.01,-0.15,0.18,-0.33,-0.34,
1.96,0.17,1.01,-0.15,0.17,-0.35,-0.36,
1.961,0.17,1.01,-0.15,0.16,-0.36,-0.36,
1.961,0.17,1.01,-0.15,0.15,-0.38,-0.38,
1.961,0.33,0.98,0.19,0.15,-0.38,-0.38,
1.962,0.33,0.98,0.19,0.15,-0.39,-0.39,
1.962,0.33,0.98,0.19,0.14,-0.40,-0.40,
1.962,0.33,0.98,0.19,0.14,-0.43,-0.41,
1.963,0.33,0.98,0.19,0.14,-0.43,-0.42,
1.963,0.33,0.98,0.19,0.14,-0.44,-0.42,
1.963,0.42,0.90,0.83,0.14,-0.44,-0.42,
1.963,0.42,0.90,0.83,0.14,-0.45,-0.43,
1.964,0.42,0.90,0.83,0.14,-0.46,-0.44,
1.968,0.42,0.90,0.83,0.14,-0.47,-0.44,
1.972,0.42,0.90,0.83,0.14,-0.47,-0.44,
1.974,0.42,0.90,0.83,0.14,-0.47,-0.44,
1.975,0.48,0.81,1.42,0.14,-0.47,-0.44,
1.976,0.48,0.81,1.42,0.15,-0.47,-0.44,
1.976,0.48,0.81,1.42,0.15,-0.47,-0.44,
1.977,0.48,0.81,1.42,0.15,-0.46,-0.44,
1.978,0.48,0.81,1.42,0.15,-0.45,-0.44,
2.009,0.48,0.81,1.42,0.14,-0.45,-0.44,
2.01,0.53,0.67,1.69,0.14,-0.45,-0.44,
2.011,0.53,0.67,1.69,0.14,-0.43,-0.44,
2.011,0.53,0.67,1.69,0.14,-0.42,-0.44,
2.011,0.53,0.67,1.69,0.13,-0.39,-0.44,
2.012,0.53,0.67,1.69,0.13,-0.38,-0.44,
2.012,0.53,0.67,1.69,0.12,-0.36,-0.44,
2.013,0.60,0.57,1.77,0.12,-0.36,-0.44,
2.013,0.60,0.57,1.77,0.11,-0.33,-0.44,
2.014,0.60,0.57,1.77,0.10,-0.30,-0.44,
2.014,0.60,0.57,1.77,0.08,-0.26,-0.45,
2.014,0.60,0.57,1.77,0.07,-0.24,-0.45,
2.015,0.60,0.57,1.77,0.06,-0.21,-0.45,
2.015,0.80,0.46,1.70,0.06,-0.21,-0.45,
2.015,0.80,0.46,1.70,0.04,-0.18,-0.46,
2.016,0.80,0.46,1.70,0.02,-0.15,-0.47,
2.016,0.80,0.46,1.70,-0.01,-0.10,-0.48,
2.017,0.80,0.46,1.70,-0.03,-0.09,-0.49,
2.017,0.80,0.46,1.70,-0.05,-0.06,-0.50,
2.017,1.03,0.43,1.62,-0.05,-0.06,-0.50,
2.018,1.03,0.43,1.62,-0.07,-0.02,-0.51,
2.018,1.03,0.43,1.62,-0.10,0.02,-0.53,
2.019,1.03,0.43,1.62,-0.14,0.07,-0.55,
2.019,1.03,0.43,1.62,-0.15,0.09,-0.55,
2.019,1.03,0.43,1.62,-0.18,0.13,-0.57,
2.022,1.05,0.53,1.66,-0.18,0.13,-0.57,
2.023,1.05,0.53,1.66,-0.20,0.17,-0.58,
2.023,1.05,0.53,1.66,-0.22,0.20,-0.60,
2.025,1.05,0.53,1.66,-0.25,0.26,-0.62,
2.032,1.05,0.53,1.66,-0.26,0.28,-0.63,
2.033,1.05,0.53,1.66,-0.28,0.33,-0.64,
2.036,0.87,0.67,1.87,-0.28,0.33,-0.64,
2.037,0.87,0.67,1.87,-0.29,0.37,-0.65,
2.037,0.87,0.67,1.87,-0.31,0.40,-0.66,
2.037,0.87,0.67,1.87,-0.32,0.46,-0.67,
2.038,0.87,0.67,1.87,-0.33,0.48,-0.68,
2.041,0.87,0.67,1.87,-0.33,0.52,-0.68,
2.042,0.53,0.61,2.12,-0.33,0.52,-0.68,
2.042,0.53,0.61,2.12,-0.34,0.55,-0.68,
2.052,0.53,0.61,2.12,-0.34,0.58,-0.69,
2.054,0.53,0.61,2.12,-0.34,0.63,-0.69,
2.055,0.53,0.61,2.12,-0.34,0.65,-0.69,
2.055,0.53,0.61,2.12,-0.33,0.68,-0.69,
2.06,0.16,0.49,2.42,-0.33,0.68,-0.69,
2.061,0.16,0.49,2.42,-0.33,0.71,-0.68,
2.061,0.16,0.49,2.42,-0.31,0.74,-0.68,
2.062,0.16,0.49,2.42,-0.29,0.78,-0.67,
2.062,0.16,0.49,2.42,-0.29,0.79,-0.67,
2.062,0.16,0.49,2.42,-0.27,0.81,-0.66,
2.063,-0.23,0.39,2.58,-0.27,0.81,-0.66,
2.063,-0.23,0.39,2.58,-0.25,0.83,-0.65,
2.063,-0.23,0.39,2.58,-0.23,0.85,-0.64,
2.066,-0.23,0.39,2.58,-0.20,0.86,-0.63,
2.067,-0.23,0.39,2.58,-0.18,0.86,-0.62,
2.069,-0.23,0.39,2.58,-0.16,0.87,-0.61,
2.071,-0.54,0.32,2.46,-0.16,0.87,-0.61,
2.073,-0.54,0.32,2.46,-0.14,0.86,-0.60,
2.074,-0.54,0.32,2.46,-0.12,0.86,-0.59,
2.078,-0.54,0.32,2.46,-0.09,0.84,-0.57,
2.078,-0.54,0.32,2.46,-0.08,0.83,-0.57,
2.086,-0.54,0.32,2.46,-0.06,0.81,-0.56,
2.087,-0.80,0.33,2.07,-0.06,0.81,-0.56,
2.087,-0.80,0.33,2.07,-0.05,0.78,-0.54,
2.088,-0.80,0.33,2.07,-0.03,0.76,-0.53,
2.088,-0.80,0.33,2.07,-0.01,0.71,-0.52,
2.088,-0.80,0.33,2.07,-0.00,0.70,-0.51,
2.089,-0.80,0.33,2.07,0.01,0.67,-0.50,
2.113,-0.93,0.39,1.71,0.01,0.67,-0.50,
2.117,-0.93,0.39,1.71,0.03,0.63,-0.49,
2.118,-0.93,0.39,1.71,0.04,0.60,-0.48,
2.119,-0.93,0.39,1.71,0.05,0.55,-0.46,
2.119,-0.93,0.39,1.71,0.06,0.54,-0.46,
2.119,-0.93,0.39,1.71,0.08,0.50,-0.45,
2.12,-0.86,0.39,1.53,0.08,0.50,-0.45,
2.12,-0.86,0.39,1.53,0.09,0.48,-0.44,
2.121,-0.86,0.39,1.53,0.10,0.45,-0.43,
2.121,-0.86,0.39,1.53,0.12,0.40,-0.42,
2.122,-0.86,0.39,1.53,0.12,0.39,-0.41,
2.122,-0.86,0.39,1.53,0.14,0.36,-0.41,
2.123,-0.74,0.42,1.51,0.14,0.36,-0.41,
2.123,-0.74,0.42,1.51,0.15,0.33,-0.40,
2.123,-0.74,0.42,1.51,0.16,0.30,-0.40,
2.124,-0.74,0.42,1.51,0.18,0.25,-0.39,
2.124,-0.74,0.42,1.51,0.18,0.23,-0.39,
2.124,-0.74,0.42,1.51,0.19,0.20,-0.39,
2.125,-0.55,0.43,1.45,0.19,0.20,-0.39,
2.125,-0.55,0.43,1.45,0.20,0.16,-0.39,
2.126,-0.55,0.43,1.45,0.20,0.14,-0.39,
2.126,-0.55,0.43,1.45,0.20,0.09,-0.39,
2.131,-0.55,0.43,1.45,0.21,0.08,-0.39,
2.133,-0.55,0.43,1.45,0.21,0.05,-0.39,
2.133,-0.44,0.41,1.32,0.21,0.05,-0.39,
2.134,-0.44,0.41,1.32,0.21,0.02,-0.39,
2.134,-0.44,0.41,1.32,0.21,-0.01,-0.39,
2.137,-0.44,0.41,1.32,0.20,-0.05,-0.38,
2.138,-0.44,0.41,1.32,0.20,-0.07,-0.38,
2.139,-0.44,0.41,1.32,0.19,-0.09,-0.38,
2.141,-0.28,0.40,1.24,0.19,-0.09,-0.38,
2.142,-0.28,0.40,1.24,0.18,-0.12,-0.38,
2.145,-0.28,0.40,1.24,0.18,-0.14,-0.38,
2.178,-0.28,0.40,1.24,0.16,-0.18,-0.38,
2.179,-0.28,0.40,1.24,0.15,-0.19,-0.38,
2.179,-0.28,0.40,1.24,0.14,-0.21,-0.38,
2.179,-0.18,0.36,1.34,0.14,-0.21,-0.38,
2.18,-0.18,0.36,1.34,0.13,-0.24,-0.38,
2.18,-0.18,0.36,1.34,0.11,-0.27,-0.38,
2.181,-0.18,0.36,1.34,0.09,-0.30,-0.37,
2.181,-0.18,0.36,1.34,0.08,-0.32,-0.37,
2.181,-0.18,0.36,1.34,0.07,-0.34,-0.38,
2.182,-0.08,0.26,1.72,0.07,-0.34,-0.38,
2.182,-0.08,0.26,1.72,0.05,-0.36,-0.37,
2.183,-0.08,0.26,1.72,0.04,-0.38,-0.37,
2.183,-0.08,0.26,1.72,0.02,-0.41,-0.37,
2.183,-0.08,0.26,1.72,0.02,-0.42,-0.37,
2.184,-0.08,0.26,1.72,0.01,-0.43,-0.37,
2.184,0.01,0.16,2.36,0.01,-0.43,-0.37,
2.185,0.01,0.16,2.36,0.00,-0.45,-0.37,
2.185,0.01,0.16,2.36,0.00,-0.46,-0.37,
2.186,0.01,0.16,2.36,-0.00,-0.47,-0.37,
2.186,0.01,0.16,2.36,0.00,-0.47,-0.37,
2.187,0.01,0.16,2.36,0.01,-0.48,-0.36,
2.187,0.11,0.06,3.19,0.01,-0.48,-0.36,
2.187,0.11,0.06,3.19,0.02,-0.47,-0.36,
2.188,0.11,0.06,3.19,0.03,-0.47,-0.36,
2.188,0.11,0.06,3.19,0.05,-0.46,-0.35,
2.188,0.11,0.06,3.19,0.06,-0.46,-0.35,
2.189,0.11,0.06,3.19,0.08,-0.45,-0.35,
2.19,0.17,-0.10,4.09,0.08,-0.45,-0.35,
2.191,0.17,-0.10,4.09,0.11,-0.44,-0.34,
2.193,0.17,-0.10,4.09,0.14,-0.42,-0.33,
2.198,0.17,-0.10,4.09,0.18,-0.39,-0.32,
2.198,0.17,-0.10,4.09,0.20,-0.38,-0.31,
2.199,0.17,-0.10,4.09,0.23,-0.35,-0.31,
2.203,0.24,-0.18,4.63,0.23,-0.35,-0.31,
2.207,0.24,-0.18,4.63,0.27,-0.32,-0.30,
2.208,0.24,-0.18,4.63,0.30,-0.30,-0.29,
2.208,0.24,-0.18,4.63,0.35,-0.25,-0.28,
2.212,0.24,-0.18,4.63,0.37,-0.24,-0.27,
2.213,0.24,-0.18,4.63,0.40,-0.21,-0.27,
2.213,0.37,-0.28,4.50,0.40,-0.21,-0.27,
2.214,0.37,-0.28,4.50,0.43,-0.19,-0.26,
2.214,0.37,-0.28,4.50,0.46,-0.16,-0.26,
2.218,0.37,-0.28,4.50,0.51,-0.13,-0.25,
2.219,0.37,-0.28,4.50,0.52,-0.11,-0.25,
2.219,0.37,-0.28,4.50,0.55,-0.09,-0.25,
2.224,0.48,-0.24,3.78,0.55,-0.09,-0.25,
2.225,0.48,-0.24,3.78,0.57,-0.07,-0.24,
2.225,0.48,-0.24,3.78,0.59,-0.05,-0.24,
2.231,0.48,-0.24,3.78,0.63,-0.02,-0.24,
2.231,0.48,-0.24,3.78,0.64,-0.01,-0.24,
2.232,0.48,-0.24,3.78,0.66,0.01,-0.23,
2.232,0.55,-0.26,2.79,0.66,0.01,-0.23,
2.232,0.55,-0.26,2.79,0.67,0.03,-0.23,
2.235,0.55,-0.26,2.79,0.69,0.04,-0.23,
2.236,0.55,-0.26,2.79,0.71,0.07,-0.23,
2.239,0.55,-0.26,2.79,0.72,0.07,-0.23,
2.239,0.55,-0.26,2.79,0.73,0.09,-0.23,
2.24,0.51,-0.22,1.68,0.73,0.09,-0.23,
2.241,0.51,-0.22,1.68,0.74,0.10,-0.23,
2.243,0.51,-0.22,1.68,0.75,0.11,-0.23,
2.253,0.51,-0.22,1.68,0.76,0.12,-0.23,
2.254,0.51,-0.22,1.68,0.76,0.12,-0.23,
2.254,0.51,-0.22,1.68,0.77,0.13,-0.23,
2.255,0.43,-0.27,0.59,0.77,0.13,-0.23,
2.255,0.43,-0.27,0.59,0.77,0.14,-0.23,
2.255,0.43,-0.27,0.59,0.78,0.14,-0.23,
2.256,0.43,-0.27,0.59,0.78,0.14,-0.23,
2.257,0.43,-0.27,0.59,0.78,0.15,-0.23,
2.266,0.43,-0.27,0.59,0.78,0.15,-0.23,
2.267,0.36,-0.33,-0.40,0.78,0.15,-0.23,
2.268,0.36,-0.33,-0.40,0.78,0.15,-0.24,
2.268,0.36,-0.33,-0.40,0.78,0.15,-0.24,
2.268,0.36,-0.33,-0.40,0.77,0.14,-0.24,
2.268,0.36,-0.33,-0.40,0.77,0.14,-0.24,
2.269,0.36,-0.33,-0.40,0.77,0.14,-0.25,
2.271,0.32,-0.45,-1.23,0.77,0.14,-0.25,
2.271,0.32,-0.45,-1.23,0.76,0.13,-0.25,
2.273,0.32,-0.45,-1.23,0.75,0.13,-0.25,
2.276,0.32,-0.45,-1.23,0.74,0.12,-0.26,
2.277,0.32,-0.45,-1.23,0.74,0.12,-0.26,
2.279,0.32,-0.45,-1.23,0.73,0.10,-0.26,
2.281,0.22,-0.52,-1.97,0.73,0.10,-0.26,
2.282,0.22,-0.52,-1.97,0.72,0.10,-0.26,
2.283,0.22,-0.52,-1.97,0.71,0.09,-0.27,
2.289,0.22,-0.52,-1.97,0.70,0.07,-0.27,
2.29,0.22,-0.52,-1.97,0.69,0.07,-0.27,
2.29,0.22,-0.52,-1.97,0.68,0.06,-0.27,
2.295,0.13,-0.56,-2.52,0.68,0.06,-0.27,
2.296,0.13,-0.56,-2.52,0.67,0.04,-0.27,
2.296,0.13,-0.56,-2.52,0.66,0.03,-0.28,
2.296,0.13,-0.56,-2.52,0.64,0.02,-0.28,
2.297,0.13,-0.56,-2.52,0.64,0.01,-0.28,
2.299,0.13,-0.56,-2.52,0.63,-0.00,-0.29,
2.301,0.07,-0.64,-2.93,0.63,-0.00,-0.29,
2.303,0.07,-0.64,-2.93,0.62,-0.01,-0.29,
2.304,0.07,-0.64,-2.93,0.61,-0.03,-0.29,
2.306,0.07,-0.64,-2.93,0.59,-0.04,-0.30,
2.307,0.07,-0.64,-2.93,0.59,-0.05,-0.30,
2.31,0.07,-0.64,-2.93,0.58,-0.05,-0.30,
2.312,0.03,-0.65,-3.05,0.58,-0.05,-0.30,
2.342,0.03,-0.65,-3.05,0.58,-0.06,-0.31,
2.343,0.03,-0.65,-3.05,0.57,-0.07,-0.32,
2.343,0.03,-0.65,-3.05,0.56,-0.08,-0.32,
2.344,0.03,-0.65,-3.05,0.56,-0.08,-0.33,
2.344,0.03,-0.65,-3.05,0.55,-0.09,-0.33,
2.344,0.09,-0.82,-3.06,0.55,-0.09,-0.33,
2.345,0.09,-0.82,-3.06,0.55,-0.10,-0.34,
2.345,0.09,-0.82,-3.06,0.54,-0.11,-0.35,
2.346,0.09,-0.82,-3.06,0.53,-0.12,-0.37,
2.346,0.09,-0.82,-3.06,0.53,-0.13,-0.37,
2.347,0.09,-0.82,-3.06,0.53,-0.14,-0.38,
2.347,0.18,-1.01,-2.94,0.53,-0.14,-0.38,
2.347,0.18,-1.01,-2.94,0.52,-0.15,-0.39,
2.348,0.18,-1.01,-2.94,0.52,-0.17,-0.40,
2.348,0.18,-1.01,-2.94,0.52,-0.19,-0.41,
2.349,0.18,-1.01,-2.94,0.53,-0.20,-0.41,
2.349,0.18,-1.01,-2.94,0.53,-0.20,-0.42,
2.349,0.06,-1.16,-2.60,0.53,-0.20,-0.42,
2.35,0.06,-1.16,-2.60,0.53,-0.21,-0.42,
2.35,0.06,-1.16,-2.60,0.54,-0.22,-0.43,
2.351,0.06,-1.16,-2.60,0.55,-0.23,-0.43,
2.351,0.06,-1.16,-2.60,0.56,-0.23,-0.43,
2.351,0.06,-1.16,-2.60,0.57,-0.24,-0.43,
2.352,-0.09,-1.42,-2.36,0.57,-0.24,-0.43,
2.352,-0.09,-1.42,-2.36,0.57,-0.24,-0.43,
2.353,-0.09,-1.42,-2.36,0.58,-0.24,-0.43,
2.357,-0.09,-1.42,-2.36,0.59,-0.24,-0.44,
2.363,-0.09,-1.42,-2.36,0.60,-0.24,-0.44,
2.364,-0.09,-1.42,-2.36,0.60,-0.24,-0.44,
2.364,-0.16,-1.61,-2.36,0.60,-0.24,-0.44,
2.365,-0.16,-1.61,-2.36,0.61,-0.24,-0.44,
2.365,-0.16,-1.61,-2.36,0.61,-0.24,-0.44,
2.366,-0.16,-1.61,-2.36,0.61,-0.23,-0.45,
2.369,-0.16,-1.61,-2.36,0.60,-0.23,-0.45,
2.369,-0.16,-1.61,-2.36,0.60,-0.22,-0.45,
2.373,-0.28,-1.75,-2.62,0.60,-0.22,-0.45,
2.374,-0.28,-1.75,-2.62,0.59,-0.22,-0.45,
2.374,-0.28,-1.75,-2.62,0.59,-0.21,-0.45,
2.378,-0.28,-1.75,-2.62,0.57,-0.20,-0.45,
2.38,-0.28,-1.75,-2.62,0.56,-0.19,-0.46,
2.38,-0.28,-1.75,-2.62,0.55,-0.18,-0.46,
2.384,-0.44,-1.80,-2.98,0.55,-0.18,-0.46,
2.385,-0.44,-1.80,-2.98,0.53,-0.17,-0.45,
2.385,-0.44,-1.80,-2.98,0.52,-0.15,-0.45,
2.386,-0.44,-1.80,-2.98,0.49,-0.13,-0.45,
2.389,-0.44,-1.80,-2.98,0.48,-0.13,-0.45,
2.389,-0.44,-1.80,-2.98,0.47,-0.11,-0.45,
2.392,-0.55,-1.95,-3.25,0.47,-0.11,-0.45,
2.393,-0.55,-1.95,-3.25,0.44,-0.10,-0.45,
2.394,-0.55,-1.95,-3.25,0.42,-0.08,-0.45,
2.398,-0.55,-1.95,-3.25,0.39,-0.06,-0.44,
2.398,-0.55,-1.95,-3.25,0.38,-0.05,-0.44,
2.399,-0.55,-1.95,-3.25,0.36,-0.04,-0.44,
2.418,-0.64,-1.97,-3.33,0.36,-0.04,-0.44,
2.418,-0.64,-1.97,-3.33,0.34,-0.02,-0.43,
2.419,-0.64,-1.97,-3.33,0.32,-0.00,-0.43,
2.419,-0.64,-1.97,-3.33,0.29,0.02,-0.43,
2.419,-0.64,-1.97,-3.33,0.27,0.03,-0.42,
2.419,-0.64,-1.97,-3.33,0.26,0.03,-0.42,
2.42,-0.63,-2.00,-3.27,0.26,0.03,-0.42,
2.42,-0.63,-2.00,-3.27,0.24,0.04,-0.42,
2.42,-0.63,-2.00,-3.27,0.23,0.05,-0.42,
2.421,-0.63,-2.00,-3.27,0.20,0.05,-0.43,
2.421,-0.63,-2.00,-3.27,0.18,0.06,-0.43,
2.421,-0.63,-2.00,-3.27,0.17,0.05,-0.43,
2.422,-0.56,-1.98,-3.16,0.17,0.05,-0.43,
2.422,-0.56,-1.98,-3.16,0.16,0.05,-0.43,
2.423,-0.56,-1.98,-3.16,0.14,0.05,-0.44,
2.429,-0.56,-1.98,-3.16,0.12,0.05,-0.44,
2.429,-0.56,-1.98,-3.16,0.10,0.04,-0.45,
2.431,-0.56,-1.98,-3.16,0.10,0.04,-0.45,
2.432,-0.60,-2.02,-2.92,0.10,0.04,-0.45,
2.433,-0.60,-2.02,-2.92,0.09,0.04,-0.45,
2.435,-0.60,-2.02,-2.92,0.08,0.03,-0.45,
2.436,-0.60,-2.02,-2.92,0.07,0.03,-0.45,
2.437,-0.60,-2.02,-2.92,0.06,0.03,-0.46,
2.439,-0.60,-2.02,-2.92,0.06,0.03,-0.46,
2.442,-0.69,-2.06,-2.58,0.06,0.03,-0.46,
2.443,-0.69,-2.06,-2.58,0.06,0.03,-0.46,
2.443,-0.69,-2.06,-2.58,0.05,0.02,-0.46,
2.446,-0.69,-2.06,-2.58,0.05,0.03,-0.46,
2.447,-0.69,-2.06,-2.58,0.05,0.03,-0.46,
2.449,-0.69,-2.06,-2.58,0.05,0.03,-0.45,
2.451,-0.79,-2.24,-2.22,0.05,0.03,-0.45,
2.451,-0.79,-2.24,-2.22,0.05,0.03,-0.45,
2.453,-0.79,-2.24,-2.22,0.05,0.03,-0.45,
2.458,-0.79,-2.24,-2.22,0.06,0.02,-0.45,
2.459,-0.79,-2.24,-2.22,0.06,0.02,-0.45,
2.46,-0.79,-2.24,-2.22,0.07,0.03,-0.44,
2.461,-0.85,-2.22,-1.91,0.07,0.03,-0.44,
2.463,-0.85,-2.22,-1.91,0.08,0.03,-0.44,
2.464,-0.85,-2.22,-1.91,0.09,0.03,-0.43,
2.466,-0.85,-2.22,-1.91,0.10,0.03,-0.42,
2.467,-0.85,-2.22,-1.91,0.11,0.03,-0.41,
2.469,-0.85,-2.22,-1.91,0.12,0.03,-0.41,
2.473,-1.07,-2.26,-1.66,0.12,0.03,-0.41,
2.473,-1.07,-2.26,-1.66,0.14,0.04,-0.39,
2.474,-1.07,-2.26,-1.66,0.14,0.04,-0.39,
2.477,-1.07,-2.26,-1.66,0.16,0.05,-0.38,
2.477,-1.07,-2.26,-1.66,0.17,0.05,-0.37,
2.508,-1.07,-2.26,-1.66,0.18,0.05,-0.36,
2.508,-1.07,-2.13,-1.65,0.18,0.05,-0.36,
2.509,-1.07,-2.13,-1.65,0.19,0.05,-0.36,
2.509,-1.07,-2.13,-1.65,0.20,0.05,-0.35,
2.51,-1.07,-2.13,-1.65,0.21,0.05,-0.34,
2.51,-1.07,-2.13,-1.65,0.22,0.05,-0.34,
2.511,-1.07,-2.13,-1.65,0.22,0.05,-0.34,
2.511,-1.02,-2.05,-1.82,0.22,0.05,-0.34,
2.511,-1.02,-2.05,-1.82,0.23,0.04,-0.34,
2.512,-1.02,-2.05,-1.82,0.23,0.04,-0.33,
2.512,-1.02,-2.05,-1.82,0.23,0.02,-0.33,
2.513,-1.02,-2.05,-1.82,0.23,0.01,-0.33,
2.513,-1.02,-2.05,-1.82,0.23,0.01,-0.33,
2.514,-0.99,-1.88,-2.09,0.23,0.01,-0.33,
2.514,-0.99,-1.88,-2.09,0.23,-0.00,-0.32,
2.515,-0.99,-1.88,-2.09,0.22,-0.01,-0.32,
2.515,-0.99,-1.88,-2.09,0.21,-0.03,-0.32,
2.515,-0.99,-1.88,-2.09,0.20,-0.04,-0.31,
2.516,-0.99,-1.88,-2.09,0.20,-0.04,-0.31,
2.516,-0.96,-1.88,-2.33,0.20,-0.04,-0.31,
2.516,-0.96,-1.88,-2.33,0.19,-0.05,-0.31,
2.517,-0.96,-1.88,-2.33,0.18,-0.06,-0.31,
2.517,-0.96,-1.88,-2.33,0.15,-0.07,-0.31,
2.518,-0.96,-1.88,-2.33,0.14,-0.07,-0.32,
2.523,-0.96,-1.88,-2.33,0.13,-0.07,-0.32,
2.524,-0.73,-1.86,-2.52,0.13,-0.07,-0.32,
2.524,-0.73,-1.86,-2.52,0.10,-0.08,-0.32,
2.525,-0.73,-1.86,-2.52,0.07,-0.09,-0.33,
2.526,-0.73,-1.86,-2.52,0.04,-0.10,-0.33,
2.527,-0.73,-1.86,-2.52,0.02,-0.11,-0.34,
2.53,-0.73,-1.86,-2.52,-0.02,-0.12,-0.34,
2.531,-0.54,-1.91,-2.66,-0.02,-0.12,-0.34,
2.531,-0.54,-1.91,-2.66,-0.05,-0.13,-0.35,
2.533,-0.54,-1.91,-2.66,-0.09,-0.13,-0.35,
2.536,-0.54,-1.91,-2.66,-0.12,-0.14,-0.36,
2.536,-0.54,-1.91,-2.66,-0.16,-0.14,-0.36,
2.539,-0.54,-1.91,-2.66,-0.20,-0.14,-0.36,
2.541,-0.41,-1.87,-2.51,-0.20,-0.14,-0.36,
2.541,-0.41,-1.87,-2.51,-0.23,-0.14,-0.37,
2.544,-0.41,-1.87,-2.51,-0.28,-0.13,-0.37,
2.552,-0.41,-1.87,-2.51,-0.32,-0.13,-0.37,
2.553,-0.41,-1.87,-2.51,-0.36,-0.12,-0.38,
2.553,-0.41,-1.87,-2.51,-0.40,-0.11,-0.38,
2.553,-0.21,-1.95,-2.22,-0.40,-0.11,-0.38,
2.553,-0.21,-1.95,-2.22,-0.45,-0.10,-0.38,
2.558,-0.21,-1.95,-2.22,-0.49,-0.09,-0.39,
2.558,-0.21,-1.95,-2.22,-0.56,-0.08,-0.40,
2.559,-0.21,-1.95,-2.22,-0.59,-0.08,-0.40,
2.559,-0.21,-1.95,-2.22,-0.63,-0.07,-0.40,
2.562,-0.07,-1.92,-1.79,-0.63,-0.07,-0.40,
2.563,-0.07,-1.92,-1.79,-0.67,-0.06,-0.41,
2.564,-0.07,-1.92,-1.79,-0.71,-0.05,-0.41,
2.57,-0.07,-1.92,-1.79,-0.75,-0.04,-0.41,
2.571,-0.07,-1.92,-1.79,-0.79,-0.03,-0.41,
2.571,-0.07,-1.92,-1.79,-0.82,-0.02,-0.42,
2.572,0.13,-1.84,-0.84,-0.82,-0.02,-0.42,
2.573,0.13,-1.84,-0.84,-0.85,-0.01,-0.42,
2.576,0.13,-1.84,-0.84,-0.87,0.01,-0.42,
2.577,0.13,-1.84,-0.84,-0.89,0.02,-0.43,
2.577,0.13,-1.84,-0.84,-0.91,0.04,-0.43,
2.579,0.13,-1.84,-0.84,-0.92,0.06,-0.43,
2.581,0.41,-1.75,0.18,-0.92,0.06,-0.43,
2.581,0.41,-1.75,0.18,-0.93,0.08,-0.44,
2.583,0.41,-1.75,0.18,-0.94,0.10,-0.44,
2.585,0.41,-1.75,0.18,-0.95,0.12,-0.44,
2.586,0.41,-1.75,0.18,-0.96,0.14,-0.44,
2.588,0.41,-1.75,0.18,-0.97,0.15,-0.44,
2.592,0.57,-1.77,0.79,-0.97,0.15,-0.44,
2.593,0.57,-1.77,0.79,-0.97,0.17,-0.43,
2.594,0.57,-1.77,0.79,-0.98,0.18,-0.43,
2.595,0.57,-1.77,0.79,-0.99,0.19,-0.42,
2.597,0.57,-1.77,0.79,-1.01,0.20,-0.42,
2.599,0.57,-1.77,0.79,-1.02,0.21,-0.41,
2.6,0.55,-1.61,0.88,-1.02,0.21,-0.41,
2.601,0.55,-1.61,0.88,-1.03,0.22,-0.41,
2.602,0.55,-1.61,0.88,-1.04,0.23,-0.40,
2.605,0.55,-1.61,0.88,-1.05,0.23,-0.40,
2.616,0.55,-1.61,0.88,-1.06,0.24,-0.39,
2.618,0.55,-1.61,0.88,-1.06,0.25,-0.39,
2.618,0.47,-1.32,0.94,-1.06,0.25,-0.39,
2.619,0.47,-1.32,0.94,-1.07,0.26,-0.38,
2.619,0.47,-1.32,0.94,-1.07,0.26,-0.37,
2.62,0.47,-1.32,0.94,-1.07,0.27,-0.37,
2.62,0.47,-1.32,0.94,-1.06,0.27,-0.36,
2.621,0.47,-1.32,0.94,-1.06,0.27,-0.35,
2.647,0.26,-0.90,1.07,-1.06,0.27,-0.35,
2.649,0.26,-0.90,1.07,-1.05,0.27,-0.35,
2.651,0.26,-0.90,1.07,-1.04,0.26,-0.34,
2.652,0.26,-0.90,1.07,-1.04,0.25,-0.33,
2.652,0.26,-0.90,1.07,-1.03,0.23,-0.33,
2.654,0.26,-0.90,1.07,-1.02,0.22,-0.32,
2.654,0.01,-0.53,1.08,-1.02,0.22,-0.32,
2.655,0.01,-0.53,1.08,-1.02,0.20,-0.32,
2.656,0.01,-0.53,1.08,-1.01,0.18,-0.31,
2.657,0.01,-0.53,1.08,-1.00,0.16,-0.30,
2.659,0.01,-0.53,1.08,-1.00,0.14,-0.30,
2.66,0.01,-0.53,1.08,-1.00,0.12,-0.29,
2.662,-0.00,-0.25,0.88,-1.00,0.12,-0.29,
2.663,-0.00,-0.25,0.88,-1.00,0.10,-0.29,
2.663,-0.00,-0.25,0.88,-1.01,0.08,-0.29,
2.694,-0.00,-0.25,0.88,-1.03,0.07,-0.29,
2.695,-0.00,-0.25,0.88,-1.05,0.06,-0.28,
2.695,-0.00,-0.25,0.88,-1.08,0.05,-0.28,
2.696,0.17,-0.22,0.25,-1.08,0.05,-0.28,
2.696,0.17,-0.22,0.25,-1.11,0.05,-0.28,
2.697,0.17,-0.22,0.25,-1.15,0.05,-0.29,
2.698,0.17,-0.22,0.25,-1.21,0.06,-0.29,
2.698,0.17,-0.22,0.25,-1.24,0.06,-0.29,
2.699,0.17,-0.22,0.25,-1.28,0.08,-0.29,
2.699,0.35,-0.22,-0.32,-1.28,0.08,-0.29,
2.7,0.35,-0.22,-0.32,-1.34,0.10,-0.29,
2.7,0.35,-0.22,-0.32,-1.39,0.12,-0.29,
2.701,0.35,-0.22,-0.32,-1.44,0.15,-0.28,
2.702,0.35,-0.22,-0.32,-1.49,0.18,-0.28,
2.702,0.35,-0.22,-0.32,-1.54,0.21,-0.28,
2.703,0.46,-0.28,-0.12,-1.54,0.21,-0.28,
2.703,0.46,-0.28,-0.12,-1.58,0.23,-0.28,
2.704,0.46,-0.28,-0.12,-1.62,0.26,-0.28,
2.704,0.46,-0.28,-0.12,-1.67,0.30,-0.27,
2.704,0.46,-0.28,-0.12,-1.68,0.32,-0.27,
2.707,0.46,-0.28,-0.12,-1.71,0.34,-0.27,
2.708,0.71,-0.38,0.89,-1.71,0.34,-0.27,
2.708,0.71,-0.38,0.89,-1.73,0.36,-0.26,
2.709,0.71,-0.38,0.89,-1.75,0.38,-0.26,
2.709,0.71,-0.38,0.89,-1.76,0.40,-0.26,
2.71,0.71,-0.38,0.89,-1.77,0.41,-0.26,
2.71,0.71,-0.38,0.89,-1.77,0.42,-0.26,
2.711,1.05,-0.50,2.12,-1.77,0.42,-0.26,
2.711,1.05,-0.50,2.12,-1.77,0.43,-0.26,
2.711,1.05,-0.50,2.12,-1.76,0.43,-0.26,
2.712,1.05,-0.50,2.12,-1.74,0.43,-0.26,
2.712,1.05,-0.50,2.12,-1.73,0.43,-0.26,
2.713,1.05,-0.50,2.12,-1.71,0.43,-0.26,
2.713,1.31,-0.59,3.35,-1.71,0.43,-0.26,
2.713,1.31,-0.59,3.35,-1.69,0.42,-0.26,
2.714,1.31,-0.59,3.35,-1.65,0.41,-0.26,
2.714,1.31,-0.59,3.35,-1.60,0.38,-0.26,
2.715,1.31,-0.59,3.35,-1.58,0.37,-0.25,
2.715,1.31,-0.59,3.35,-1.53,0.35,-0.25,
2.715,1.40,-0.62,4.51,-1.53,0.35,-0.25,
2.716,1.40,-0.62,4.51,-1.48,0.32,-0.24,
2.717,1.40,-0.62,4.51,-1.43,0.29,-0.23,
2.717,1.40,-0.62,4.51,-1.34,0.24,-0.22,
2.717,1.40,-0.62,4.51,-1.31,0.22,-0.21,
2.722,1.40,-0.62,4.51,-1.25,0.18,-0.20,
2.723,1.36,-0.54,5.28,-1.25,0.18,-0.20,
2.724,1.36,-0.54,5.28,-1.18,0.13,-0.19,
2.724,1.36,-0.54,5.28,-1.12,0.08,-0.17,
2.728,1.36,-0.54,5.28,-1.01,-0.00,-0.15,
2.729,1.36,-0.54,5.28,-0.97,-0.03,-0.15,
2.729,1.36,-0.54,5.28,-0.90,-0.09,-0.13,
2.733,1.39,-0.32,5.66,-0.90,-0.09,-0.13,
2.734,1.39,-0.32,5.66,-0.82,-0.15,-0.12,
2.734,1.39,-0.32,5.66,-0.74,-0.22,-0.10,
2.736,1.39,-0.32,5.66,-0.62,-0.32,-0.08,
2.737,1.39,-0.32,5.66,-0.58,-0.36,-0.07,
2.742,1.39,-0.32,5.66,-0.50,-0.43,-0.06,
2.743,1.60,-0.02,5.68,-0.50,-0.43,-0.06,
2.744,1.60,-0.02,5.68,-0.42,-0.51,-0.05,
2.744,1.60,-0.02,5.68,-0.34,-0.58,-0.04,
2.747,1.60,-0.02,5.68,-0.22,-0.70,-0.03,
2.753,1.60,-0.02,5.68,-0.18,-0.74,-0.03,
2.754,1.60,-0.02,5.68,-0.11,-0.82,-0.03,
2.754,2.12,0.33,5.35,-0.11,-0.82,-0.03,
2.755,2.12,0.33,5.35,-0.04,-0.89,-0.03,
2.756,2.12,0.33,5.35,0.03,-0.97,-0.04,
2.76,2.12,0.33,5.35,0.13,-1.08,-0.05,
2.762,2.12,0.33,5.35,0.16,-1.11,-0.06,
2.763,2.12,0.33,5.35,0.22,-1.18,-0.07,
2.763,2.67,0.62,4.76,0.22,-1.18,-0.07,
2.764,2.67,0.62,4.76,0.28,-1.25,-0.08,
2.765,2.67,0.62,4.76,0.33,-1.31,-0.10,
2.766,2.67,0.62,4.76,0.41,-1.38,-0.12,
2.768,2.67,0.62,4.76,0.43,-1.41,-0.13,
2.769,2.67,0.62,4.76,0.48,-1.45,-0.15,
2.77,3.15,0.83,4.07,0.48,-1.45,-0.15,
2.772,3.15,0.83,4.07,0.52,-1.49,-0.17,
2.782,3.15,0.83,4.07,0.56,-1.52,-0.20,
2.783,3.15,0.83,4.07,0.61,-1.55,-0.24,
2.783,3.15,0.83,4.07,0.63,-1.56,-0.25,
2.784,3.15,0.83,4.07,0.65,-1.57,-0.27,
2.784,3.42,0.96,3.26,0.65,-1.57,-0.27,
2.784,3.42,0.96,3.26,0.68,-1.57,-0.30,
2.785,3.42,0.96,3.26,0.70,-1.57,-0.33,
2.79,3.42,0.96,3.26,0.72,-1.55,-0.38,
2.79,3.42,0.96,3.26,0.73,-1.54,-0.39,
2.79,3.42,0.96,3.26,0.73,-1.52,-0.42,
2.802,3.58,1.05,2.24,0.73,-1.52,-0.42,
2.804,3.58,1.05,2.24,0.74,-1.49,-0.45,
2.804,3.58,1.05,2.24,0.74,-1.46,-0.48,
2.804,3.58,1.05,2.24,0.73,-1.40,-0.53,
2.804,3.58,1.05,2.24,0.73,-1.38,-0.54,
2.805,3.58,1.05,2.24,0.71,-1.34,-0.57,
2.805,3.40,1.06,1.18,0.71,-1.34,-0.57,
2.805,3.40,1.06,1.18,0.70,-1.29,-0.60,
2.806,3.40,1.06,1.18,0.68,-1.24,-0.62,
2.806,3.40,1.06,1.18,0.65,-1.17,-0.67,
2.812,3.40,1.06,1.18,0.64,-1.14,-0.68,
2.814,3.40,1.06,1.18,0.61,-1.09,-0.71,
2.815,3.25,1.09,0.14,0.61,-1.09,-0.71,
2.852,3.25,1.09,0.14,0.59,-1.04,-0.73,
2.854,3.25,1.09,0.14,0.56,-0.99,-0.76,
2.854,3.25,1.09,0.14,0.51,-0.92,-0.80,
2.855,3.25,1.09,0.14,0.49,-0.90,-0.81,
2.859,3.25,1.09,0.14,0.46,-0.85,-0.84,
2.86,2.84,1.08,-0.68,0.46,-0.85,-0.84,
2.861,2.84,1.08,-0.68,0.42,-0.81,-0.86,
2.861,2.84,1.08,-0.68,0.39,-0.76,-0.89,
2.862,2.84,1.08,-0.68,0.34,-0.70,-0.92,
2.862,2.84,1.08,-0.68,0.32,-0.68,-0.93,
2.862,2.84,1.08,-0.68,0.29,-0.64,-0.95,
2.863,2.41,1.15,-1.20,0.29,-0.64,-0.95,
2.863,2.41,1.15,-1.20,0.26,-0.60,-0.97,
2.864,2.41,1.15,-1.20,0.23,-0.57,-0.99,
2.864,2.41,1.15,-1.20,0.20,-0.51,-1.01,
2.864,2.41,1.15,-1.20,0.19,-0.50,-1.02,
2.865,2.41,1.15,-1.20,0.17,-0.47,-1.04,
2.865,1.94,1.09,-1.33,0.17,-0.47,-1.04,
2.865,1.94,1.09,-1.33,0.15,-0.44,-1.06,
2.866,1.94,1.09,-1.33,0.13,-0.42,-1.08,
2.866,1.94,1.09,-1.33,0.12,-0.39,-1.10,
2.866,1.94,1.09,-1.33,0.11,-0.38,-1.11,
2.867,1.94,1.09,-1.33,0.10,-0.36,-1.13,
2.867,1.63,1.08,-1.36,0.10,-0.36,-1.13,
2.867,1.63,1.08,-1.36,0.10,-0.35,-1.14,
2.868,1.63,1.08,-1.36,0.09,-0.33,-1.16,
2.868,1.63,1.08,-1.36,0.09,-0.31,-1.18,
2.869,1.63,1.08,-1.36,0.09,-0.31,-1.19,
2.869,1.63,1.08,-1.36,0.09,-0.30,-1.21,
2.869,1.27,1.02,-1.40,0.09,-0.30,-1.21,
2.87,1.27,1.02,-1.40,0.10,-0.29,-1.22,
2.87,1.27,1.02,-1.40,0.10,-0.28,-1.23,
2.87,1.27,1.02,-1.40,0.11,-0.27,-1.25,
2.871,1.27,1.02,-1.40,0.11,-0.26,-1.26,
2.871,1.27,1.02,-1.40,0.12,-0.25,-1.27,
2.874,0.95,0.94,-1.60,0.12,-0.25,-1.27,
2.875,0.95,0.94,-1.60,0.12,-0.25,-1.28,
2.875,0.95,0.94,-1.60,0.13,-0.24,-1.29,
2.876,0.95,0.94,-1.60,0.13,-0.24,-1.30,
2.877,0.95,0.94,-1.60,0.13,-0.24,-1.30,
2.878,0.95,0.94,-1.60,0.13,-0.24,-1.31,
2.881,0.54,0.83,-1.91,0.13,-0.24,-1.31,
2.881,0.54,0.83,-1.91,0.14,-0.24,-1.31,
2.883,0.54,0.83,-1.91,0.14,-0.25,-1.32,
2.886,0.54,0.83,-1.91,0.14,-0.25,-1.32,
2.886,0.54,0.83,-1.91,0.14,-0.26,-1.32,
2.89,0.54,0.83,-1.91,0.14,-0.26,-1.32,
2.891,0.21,0.84,-2.24,0.14,-0.26,-1.32,
2.891,0.21,0.84,-2.24,0.14,-0.27,-1.33,
2.898,0.21,0.84,-2.24,0.14,-0.28,-1.33,
2.899,0.21,0.84,-2.24,0.13,-0.30,-1.33,
2.899,0.21,0.84,-2.24,0.13,-0.30,-1.33,
2.899,0.21,0.84,-2.24,0.13,-0.31,-1.33,
2.9,-0.02,0.82,-2.53,0.13,-0.31,-1.33,
2.901,-0.02,0.82,-2.53,0.13,-0.32,-1.34,
2.903,-0.02,0.82,-2.53,0.12,-0.33,-1.34,
2.919,-0.02,0.82,-2.53,0.11,-0.34,-1.35,
2.92,-0.02,0.82,-2.53,0.11,-0.35,-1.35,
2.92,-0.02,0.82,-2.53,0.10,-0.35,-1.36,
2.92,-0.14,0.84,-2.79,0.10,-0.35,-1.36,
2.921,-0.14,0.84,-2.79,0.09,-0.36,-1.36,
2.921,-0.14,0.84,-2.79,0.08,-0.36,-1.37,
2.921,-0.14,0.84,-2.79,0.07,-0.36,-1.38,
2.921,-0.14,0.84,-2.79,0.06,-0.36,-1.38,
2.922,-0.14,0.84,-2.79,0.05,-0.37,-1.38,
2.922,-0.27,0.80,-2.97,0.05,-0.37,-1.38,
2.922,-0.27,0.80,-2.97,0.04,-0.37,-1.39,
2.923,-0.27,0.80,-2.97,0.02,-0.37,-1.39,
2.926,-0.27,0.80,-2.97,-0.01,-0.37,-1.41,
2.927,-0.27,0.80,-2.97,-0.01,-0.37,-1.41,
2.929,-0.27,0.80,-2.97,-0.03,-0.37,-1.42,
2.93,-0.43,0.84,-3.17,-0.03,-0.37,-1.42,
2.931,-0.43,0.84,-3.17,-0.05,-0.37,-1.42,
2.933,-0.43,0.84,-3.17,-0.07,-0.37,-1.43,
2.936,-0.43,0.84,-3.17,-0.10,-0.36,-1.44,
2.936,-0.43,0.84,-3.17,-0.11,-0.36,-1.44,
2.939,-0.43,0.84,-3.17,-0.13,-0.35,-1.44,
2.94,-0.63,0.75,-3.10,-0.13,-0.35,-1.44,
2.941,-0.63,0.75,-3.10,-0.14,-0.34,-1.44,
2.943,-0.63,0.75,-3.10,-0.16,-0.34,-1.45,
2.946,-0.63,0.75,-3.10,-0.19,-0.33,-1.44,
2.947,-0.63,0.75,-3.10,-0.19,-0.32,-1.44,
2.948,-0.63,0.75,-3.10,-0.21,-0.32,-1.44,
2.95,-0.92,0.68,-2.85,-0.21,-0.32,-1.44,
2.951,-0.92,0.68,-2.85,-0.22,-0.31,-1.44,
2.954,-0.92,0.68,-2.85,-0.24,-0.30,-1.44,
2.956,-0.92,0.68,-2.85,-0.26,-0.29,-1.43,
2.959,-0.92,0.68,-2.85,-0.26,-0.29,-1.43,
2.959,-0.92,0.68,-2.85,-0.27,-0.28,-1.42,
2.96,-1.11,0.58,-2.48,-0.27,-0.28,-1.42,
2.961,-1.11,0.58,-2.48,-0.28,-0.28,-1.42,
2.963,-1.11,0.58,-2.48,-0.29,-0.27,-1.42,
2.966,-1.11,0.58,-2.48,-0.30,-0.25,-1.41,
2.967,-1.11,0.58,-2.48,-0.31,-0.25,-1.40,
2.969,-1.11,0.58,-2.48,-0.31,-0.24,-1.40,
2.972,-1.28,0.57,-2.09,-0.31,-0.24,-1.40,
2.972,-1.28,0.57,-2.09,-0.32,-0.23,-1.39,
2.973,-1.28,0.57,-2.09,-0.32,-0.22,-1.39,
2.976,-1.28,0.57,-2.09,-0.33,-0.20,-1.38,
2.977,-1.28,0.57,-2.09,-0.33,-0.19,-1.37,
3.009,-1.28,0.57,-2.09,-0.34,-0.18,-1.37,
3.01,-1.40,0.51,-1.80,-0.34,-0.18,-1.37,
3.01,-1.40,0.51,-1.80,-0.34,-0.17,-1.36,
3.011,-1.40,0.51,-1.80,-0.34,-0.16,-1.35,
3.011,-1.40,0.51,-1.80,-0.34,-0.14,-1.34,
3.011,-1.40,0.51,-1.80,-0.34,-0.14,-1.34,
3.012,-1.40,0.51,-1.80,-0.34,-0.13,-1.33,
3.012,-1.50,0.52,-1.46,-0.34,-0.13,-1.33,
3.013,-1.50,0.52,-1.46,-0.34,-0.13,-1.32,
3.013,-1.50,0.52,-1.46,-0.33,-0.12,-1.32,
3.014,-1.50,0.52,-1.46,-0.33,-0.11,-1.31,
3.014,-1.50,0.52,-1.46,-0.33,-0.11,-1.30,
3.014,-1.50,0.52,-1.46,-0.32,-0.11,-1.30,
3.015,-1.48,0.51,-1.24,-0.32,-0.11,-1.30,
3.015,-1.48,0.51,-1.24,-0.32,-0.12,-1.29,
3.016,-1.48,0.51,-1.24,-0.32,-0.12,-1.29,
3.016,-1.48,0.51,-1.24,-0.32,-0.12,-1.28,
3.016,-1.48,0.51,-1.24,-0.31,-0.13,-1.27,
3.017,-1.48,0.51,-1.24,-0.31,-0.13,-1.27,
3.017,-1.57,0.55,-1.13,-0.31,-0.13,-1.27,
3.018,-1.57,0.55,-1.13,-0.31,-0.14,-1.26,
3.018,-1.57,0.55,-1.13,-0.31,-0.15,-1.25,
3.018,-1.57,0.55,-1.13,-0.31,-0.17,-1.24,
3.019,-1.57,0.55,-1.13,-0.31,-0.17,-1.24,
3.019,-1.57,0.55,-1.13,-0.31,-0.19,-1.23,
3.022,-1.54,0.57,-1.05,-0.31,-0.19,-1.23,
3.022,-1.54,0.57,-1.05,-0.32,-0.20,-1.22,
3.023,-1.54,0.57,-1.05,-0.32,-0.22,-1.22,
3.026,-1.54,0.57,-1.05,-0.33,-0.24,-1.20,
3.026,-1.54,0.57,-1.05,-0.33,-0.25,-1.20,
3.029,-1.54,0.57,-1.05,-0.33,-0.26,-1.19,
3.03,-1.55,0.56,-0.84,-0.33,-0.26,-1.19,
3.031,-1.55,0.56,-0.84,-0.34,-0.28,-1.18,
3.032,-1.55,0.56,-0.84,-0.34,-0.29,-1.17,
3.036,-1.55,0.56,-0.84,-0.35,-0.31,-1.16,
3.037,-1.55,0.56,-0.84,-0.35,-0.31,-1.15,
3.039,-1.55,0.56,-0.84,-0.36,-0.31,-1.13,
3.042,-1.56,0.43,-0.42,-0.36,-0.31,-1.13,
3.043,-1.56,0.43,-0.42,-0.36,-0.31,-1.11,
3.046,-1.56,0.43,-0.42,-0.36,-0.29,-1.09,
3.047,-1.56,0.43,-0.42,-0.36,-0.26,-1.05,
3.051,-1.56,0.43,-0.42,-0.36,-0.25,-1.04,
3.051,-1.56,0.43,-0.42,-0.35,-0.22,-1.02,
3.052,-1.55,0.25,0.34,-0.35,-0.22,-1.02,
3.06,-1.55,0.25,0.34,-0.35,-0.18,-0.99,
3.061,-1.55,0.25,0.34,-0.34,-0.14,-0.97,
3.061,-1.55,0.25,0.34,-0.31,-0.07,-0.94,
3.062,-1.55,0.25,0.34,-0.31,-0.05,-0.93,
3.062,-1.55,0.25,0.34,-0.29,0.00,-0.90,
3.067,-1.54,0.15,1.14,-0.29,0.00,-0.90,
3.067,-1.54,0.15,1.14,-0.27,0.05,-0.88,
3.067,-1.54,0.15,1.14,-0.25,0.11,-0.86,
3.067,-1.54,0.15,1.14,-0.23,0.18,-0.83,
3.068,-1.54,0.15,1.14,-0.22,0.20,-0.83,
3.071,-1.54,0.15,1.14,-0.22,0.23,-0.83,
3.078,-0.87,-0.08,1.30,-0.22,0.23,-0.83,
3.078,-0.87,-0.08,1.30,-0.21,0.29,-0.83,
3.079,-0.87,-0.08,1.30,-0.19,0.35,-0.82,
3.079,-0.87,-0.08,1.30,-0.15,0.43,-0.78,
3.079,-0.87,-0.08,1.30,-0.14,0.45,-0.77,
3.079,-0.87,-0.08,1.30,-0.14,0.48,-0.76,
3.083,-1.58,0.21,1.59,-0.14,0.48,-0.76,
3.084,-1.58,0.21,1.59,-0.13,0.53,-0.75,
3.084,-1.58,0.21,1.59,-0.10,0.59,-0.72,
3.087,-1.58,0.21,1.59,-0.06,0.65,-0.67,
3.088,-1.58,0.21,1.59,-0.05,0.67,-0.66,
3.089,-1.58,0.21,1.59,-0.03,0.71,-0.63,
3.091,-2.19,0.73,2.08,-0.03,0.71,-0.63,
3.091,-2.19,0.73,2.08,-0.01,0.74,-0.61,
3.093,-2.19,0.73,2.08,0.01,0.78,-0.60,
3.096,-2.19,0.73,2.08,0.05,0.83,-0.58,
3.097,-2.19,0.73,2.08,0.06,0.84,-0.57,
3.099,-2.19,0.73,2.08,0.09,0.87,-0.56,
3.1,-1.72,0.75,2.04,0.09,0.87,-0.56,
3.101,-1.72,0.75,2.04,0.11,0.89,-0.56,
3.103,-1.72,0.75,2.04,0.14,0.91,-0.55,
3.106,-1.72,0.75,2.04,0.18,0.92,-0.54,
3.106,-1.72,0.75,2.04,0.19,0.92,-0.54,
3.109,-1.72,0.75,2.04,0.21,0.92,-0.54,
3.111,-1.39,0.77,1.55,0.21,0.92,-0.54,
3.111,-1.39,0.77,1.55,0.23,0.92,-0.55,
3.113,-1.39,0.77,1.55,0.24,0.91,-0.55,
3.115,-1.39,0.77,1.55,0.25,0.88,-0.56,
3.117,-1.39,0.77,1.55,0.26,0.87,-0.57,
3.124,-1.39,0.77,1.55,0.27,0.85,-0.58,
3.126,-1.00,0.77,0.81,0.27,0.85,-0.58,
3.127,-1.00,0.77,0.81,0.28,0.81,-0.58,
3.127,-1.00,0.77,0.81,0.28,0.78,-0.58,
3.128,-1.00,0.77,0.81,0.29,0.73,-0.58,
3.128,-1.00,0.77,0.81,0.30,0.71,-0.58,
3.129,-1.00,0.77,0.81,0.30,0.68,-0.57,
3.131,-1.42,0.99,0.35,0.30,0.68,-0.57,
3.132,-1.42,0.99,0.35,0.30,0.64,-0.57,
3.133,-1.42,0.99,0.35,0.31,0.60,-0.57,
3.139,-1.42,0.99,0.35,0.31,0.54,-0.56,
3.14,-1.42,0.99,0.35,0.30,0.51,-0.57,
3.141,-1.42,0.99,0.35,0.30,0.47,-0.57,
3.143,-1.34,0.98,-0.02,0.30,0.47,-0.57,
3.143,-1.34,0.98,-0.02,0.30,0.42,-0.57,
3.144,-1.34,0.98,-0.02,0.29,0.38,-0.56,
3.173,-1.34,0.98,-0.02,0.29,0.32,-0.56,
3.173,-1.34,0.98,-0.02,0.29,0.30,-0.56,
3.174,-1.34,0.98,-0.02,0.29,0.26,-0.56,
3.174,-1.55,0.88,-0.02,0.29,0.26,-0.56,
3.174,-1.55,0.88,-0.02,0.29,0.23,-0.56,
3.175,-1.55,0.88,-0.02,0.28,0.19,-0.55,
3.175,-1.55,0.88,-0.02,0.29,0.15,-0.54,
3.176,-1.55,0.88,-0.02,0.28,0.14,-0.54,
3.176,-1.55,0.88,-0.02,0.28,0.11,-0.53,
3.177,-1.56,0.71,0.14,0.28,0.11,-0.53,
3.177,-1.56,0.71,0.14,0.28,0.09,-0.53,
3.177,-1.56,0.71,0.14,0.27,0.07,-0.52,
3.178,-1.56,0.71,0.14,0.27,0.04,-0.50,
3.178,-1.56,0.71,0.14,0.26,0.03,-0.50,
3.179,-1.56,0.71,0.14,0.25,0.01,-0.49,
3.179,-1.62,0.41,0.22,0.25,0.01,-0.49,
3.179,-1.62,0.41,0.22,0.24,-0.01,-0.48,
3.18,-1.62,0.41,0.22,0.24,-0.02,-0.48,
3.18,-1.62,0.41,0.22,0.22,-0.04,-0.47,
3.181,-1.62,0.41,0.22,0.21,-0.05,-0.47,
3.181,-1.62,0.41,0.22,0.20,-0.07,-0.46,
3.182,-1.43,0.17,0.26,0.20,-0.07,-0.46,
3.182,-1.43,0.17,0.26,0.19,-0.08,-0.46,
3.184,-1.43,0.17,0.26,0.17,-0.09,-0.46,
3.189,-1.43,0.17,0.26,0.15,-0.12,-0.45,
3.19,-1.43,0.17,0.26,0.14,-0.12,-0.45,
3.19,-1.43,0.17,0.26,0.13,-0.13,-0.45,
3.19,-1.21,0.07,0.50,0.13,-0.13,-0.45,
3.191,-1.21,0.07,0.50,0.11,-0.14,-0.46,
3.193,-1.21,0.07,0.50,0.10,-0.15,-0.46,
3.196,-1.21,0.07,0.50,0.09,-0.17,-0.47,
3.196,-1.21,0.07,0.50,0.08,-0.17,-0.47,
3.199,-1.21,0.07,0.50,0.07,-0.18,-0.47,
3.2,-0.89,0.05,0.96,0.07,-0.18,-0.47,
3.201,-0.89,0.05,0.96,0.06,-0.18,-0.48,
3.211,-0.89,0.05,0.96,0.05,-0.18,-0.49,
3.212,-0.89,0.05,0.96,0.04,-0.19,-0.50,
3.212,-0.89,0.05,0.96,0.04,-0.19,-0.50,
3.213,-0.89,0.05,0.96,0.03,-0.19,-0.51,
3.213,-0.79,0.04,1.36,0.03,-0.19,-0.51,
3.213,-0.79,0.04,1.36,0.03,-0.19,-0.52,
3.214,-0.79,0.04,1.36,0.02,-0.19,-0.53,
3.228,-0.79,0.04,1.36,0.02,-0.19,-0.54,
3.229,-0.79,0.04,1.36,0.01,-0.19,-0.55,
3.23,-0.79,0.04,1.36,0.00,-0.18,-0.56,
3.231,-0.72,-0.03,1.58,0.00,-0.18,-0.56,
3.232,-0.72,-0.03,1.58,-0.01,-0.18,-0.57,
3.232,-0.72,-0.03,1.58,-0.02,-0.18,-0.57,
3.233,-0.72,-0.03,1.58,-0.04,-0.16,-0.59,
3.234,-0.72,-0.03,1.58,-0.05,-0.15,-0.59,
3.234,-0.72,-0.03,1.58,-0.07,-0.14,-0.60,
3.235,-0.70,-0.20,1.56,-0.07,-0.14,-0.60,
3.235,-0.70,-0.20,1.56,-0.09,-0.13,-0.60,
3.236,-0.70,-0.20,1.56,-0.11,-0.11,-0.61,
3.236,-0.70,-0.20,1.56,-0.14,-0.08,-0.62,
3.237,-0.70,-0.20,1.56,-0.15,-0.07,-0.62,
3.243,-0.70,-0.20,1.56,-0.17,-0.05,-0.63,
3.244,-0.71,-0.39,1.62,-0.17,-0.05,-0.63,
3.244,-0.71,-0.39,1.62,-0.19,-0.02,-0.63,
3.244,-0.71,-0.39,1.62,-0.21,0.00,-0.64,
3.246,-0.71,-0.39,1.62,-0.23,0.05,-0.64,
3.247,-0.71,-0.39,1.62,-0.24,0.06,-0.64,
3.249,-0.71,-0.39,1.62,-0.25,0.09,-0.64,
3.251,-0.90,-0.54,2.06,-0.25,0.09,-0.64,
3.252,-0.90,-0.54,2.06,-0.26,0.12,-0.64,
3.256,-0.90,-0.54,2.06,-0.26,0.16,-0.64,
3.258,-0.90,-0.54,2.06,-0.26,0.20,-0.64,
3.259,-0.90,-0.54,2.06,-0.26,0.22,-0.64,
3.26,-0.90,-0.54,2.06,-0.26,0.24,-0.63,
3.261,-1.26,-0.64,2.52,-0.26,0.24,-0.63,
3.262,-1.26,-0.64,2.52,-0.26,0.27,-0.62,
3.263,-1.26,-0.64,2.52,-0.25,0.30,-0.61,
3.266,-1.26,-0.64,2.52,-0.23,0.33,-0.60,
3.267,-1.26,-0.64,2.52,-0.23,0.35,-0.59,
3.27,-1.26,-0.64,2.52,-0.22,0.37,-0.57,
3.27,-1.74,-0.79,2.86,-0.22,0.37,-0.57,
3.271,-1.74,-0.79,2.86,-0.20,0.39,-0.56,
3.273,-1.74,-0.79,2.86,-0.18,0.41,-0.54,
3.276,-1.74,-0.79,2.86,-0.16,0.44,-0.51,
3.277,-1.74,-0.79,2.86,-0.15,0.45,-0.50,
3.279,-1.74,-0.79,2.86,-0.13,0.47,-0.48,
3.28,-2.03,-0.86,2.86,-0.13,0.47,-0.48,
3.281,-2.03,-0.86,2.86,-0.12,0.48,-0.45,
3.283,-2.03,-0.86,2.86,-0.10,0.49,-0.43,
3.286,-2.03,-0.86,2.86,-0.07,0.51,-0.40,
3.287,-2.03,-0.86,2.86,-0.06,0.51,-0.39,
3.289,-2.03,-0.86,2.86,-0.04,0.52,-0.36,
3.291,-2.23,-0.95,2.62,-0.04,0.52,-0.36,
3.292,-2.23,-0.95,2.62,-0.02,0.52,-0.34,
3.293,-2.23,-0.95,2.62,0.00,0.52,-0.32,
3.297,-2.23,-0.95,2.62,0.04,0.50,-0.28,
3.297,-2.23,-0.95,2.62,0.05,0.50,-0.26,
3.299,-2.23,-0.95,2.62,0.07,0.48,-0.24,
3.302,-2.24,-0.88,2.30,0.07,0.48,-0.24,
3.303,-2.24,-0.88,2.30,0.09,0.46,-0.22,
3.303,-2.24,-0.88,2.30,0.11,0.43,-0.19,
3.305,-2.24,-0.88,2.30,0.15,0.38,-0.16,
3.307,-2.24,-0.88,2.30,0.15,0.37,-0.15,
3.309,-2.24,-0.88,2.30,0.18,0.33,-0.12,
3.311,-2.26,-0.80,1.91,0.18,0.33,-0.12,
3.342,-2.26,-0.80,1.91,0.20,0.29,-0.10,
3.343,-2.26,-0.80,1.91,0.22,0.25,-0.08,
3.343,-2.26,-0.80,1.91,0.25,0.18,-0.04,
3.344,-2.26,-0.80,1.91,0.25,0.16,-0.03,
3.344,-2.26,-0.80,1.91,0.27,0.12,-0.01,
3.345,-2.18,-0.73,1.47,0.27,0.12,-0.01,
3.346,-2.18,-0.73,1.47,0.28,0.08,0.01,
3.347,-2.18,-0.73,1.47,0.29,0.05,0.04,
3.347,-2.18,-0.73,1.47,0.30,-0.01,0.07,
3.348,-2.18,-0.73,1.47,0.30,-0.02,0.08,
3.348,-2.18,-0.73,1.47,0.30,-0.05,0.11,
3.349,-2.16,-0.74,1.01,0.30,-0.05,0.11,
3.352,-2.16,-0.74,1.01,0.30,-0.08,0.13,
3.352,-2.16,-0.74,1.01,0.30,-0.10,0.16,
3.353,-2.16,-0.74,1.01,0.29,-0.13,0.20,
3.353,-2.16,-0.74,1.01,0.28,-0.14,0.21,
3.354,-2.16,-0.74,1.01,0.28,-0.16,0.23,
3.354,-1.95,-0.71,0.65,0.28,-0.16,0.23,
3.354,-1.95,-0.71,0.65,0.26,-0.18,0.25,
3.355,-1.95,-0.71,0.65,0.25,-0.20,0.27,
3.355,-1.95,-0.71,0.65,0.24,-0.23,0.30,
3.356,-1.95,-0.71,0.65,0.23,-0.23,0.31,
3.356,-1.95,-0.71,0.65,0.21,-0.25,0.33,
3.356,-1.64,-0.69,0.49,0.21,-0.25,0.33,
3.357,-1.64,-0.69,0.49,0.20,-0.26,0.35,
3.357,-1.64,-0.69,0.49,0.18,-0.27,0.36,
3.358,-1.64,-0.69,0.49,0.16,-0.29,0.39,
3.358,-1.64,-0.69,0.49,0.15,-0.29,0.39,
3.359,-1.64,-0.69,0.49,0.14,-0.30,0.41,
3.363,-1.26,-0.60,0.56,0.14,-0.30,0.41,
3.364,-1.26,-0.60,0.56,0.13,-0.31,0.42,
3.365,-1.26,-0.60,0.56,0.12,-0.32,0.43,
3.368,-1.26,-0.60,0.56,0.11,-0.33,0.44,
3.369,-1.26,-0.60,0.56,0.10,-0.33,0.45,
3.377,-1.26,-0.60,0.56,0.10,-0.33,0.45,
3.378,-0.83,-0.55,0.95,0.10,-0.33,0.45,
3.378,-0.83,-0.55,0.95,0.10,-0.33,0.46,
3.379,-0.83,-0.55,0.95,0.10,-0.33,0.47,
3.379,-0.83,-0.55,0.95,0.11,-0.33,0.47,
3.379,-0.83,-0.55,0.95,0.11,-0.33,0.47,
3.38,-0.83,-0.55,0.95,0.12,-0.32,0.47,
3.399,-0.35,-0.47,1.39,0.12,-0.32,0.47,
3.4,-0.35,-0.47,1.39,0.13,-0.32,0.47,
3.401,-0.35,-0.47,1.39,0.14,-0.31,0.47,
3.401,-0.35,-0.47,1.39,0.16,-0.29,0.47,
3.401,-0.35,-0.47,1.39,0.17,-0.28,0.46,
3.402,-0.35,-0.47,1.39,0.18,-0.27,0.46,
3.402,0.01,-0.45,1.57,0.18,-0.27,0.46,
3.402,0.01,-0.45,1.57,0.20,-0.26,0.45,
3.403,0.01,-0.45,1.57,0.21,-0.25,0.45,
3.403,0.01,-0.45,1.57,0.23,-0.22,0.44,
3.403,0.01,-0.45,1.57,0.24,-0.22,0.44,
3.403,0.01,-0.45,1.57,0.25,-0.20,0.43,
3.405,0.24,-0.42,1.30,0.25,-0.20,0.43,
3.406,0.24,-0.42,1.30,0.26,-0.19,0.42,
3.407,0.24,-0.42,1.30,0.26,-0.17,0.42,
3.407,0.24,-0.42,1.30,0.27,-0.14,0.41,
3.408,0.24,-0.42,1.30,0.27,-0.13,0.41,
3.409,0.24,-0.42,1.30,0.27,-0.11,0.40,
3.411,0.25,-0.44,0.65,0.27,-0.11,0.40,
3.411,0.25,-0.44,0.65,0.26,-0.09,0.40,
3.413,0.25,-0.44,0.65,0.26,-0.07,0.39,
3.415,0.25,-0.44,0.65,0.25,-0.04,0.39,
3.418,0.25,-0.44,0.65,0.24,-0.03,0.39,
3.42,0.25,-0.44,0.65,0.23,-0.01,0.39,
3.421,0.05,-0.51,-0.10,0.23,-0.01,0.39,
3.422,0.05,-0.51,-0.10,0.22,0.02,0.39,
3.423,0.05,-0.51,-0.10,0.21,0.04,0.39,
3.426,0.05,-0.51,-0.10,0.19,0.07,0.40,
3.427,0.05,-0.51,-0.10,0.18,0.08,0.40,
3.429,0.05,-0.51,-0.10,0.17,0.11,0.41,
3.431,-0.22,-0.62,-0.51,0.17,0.11,0.41,
3.431,-0.22,-0.62,-0.51,0.17,0.13,0.42,
3.433,-0.22,-0.62,-0.51,0.16,0.16,0.42,
3.436,-0.22,-0.62,-0.51,0.16,0.20,0.44,
3.437,-0.22,-0.62,-0.51,0.15,0.21,0.44,
3.439,-0.22,-0.62,-0.51,0.16,0.24,0.45,
3.441,-0.28,-0.71,-0.47,0.16,0.24,0.45,
3.442,-0.28,-0.71,-0.47,0.16,0.26,0.46,
3.443,-0.28,-0.71,-0.47,0.17,0.29,0.46,
3.446,-0.28,-0.71,-0.47,0.18,0.33,0.48,
3.447,-0.28,-0.71,-0.47,0.19,0.34,0.48,
3.449,-0.28,-0.71,-0.47,0.20,0.36,0.49,
3.459,-0.11,-0.81,-0.31,0.20,0.36,0.49,
3.461,-0.11,-0.81,-0.31,0.22,0.38,0.49,
3.462,-0.11,-0.81,-0.31,0.23,0.40,0.49,
3.462,-0.11,-0.81,-0.31,0.27,0.44,0.48,
3.463,-0.11,-0.81,-0.31,0.27,0.44,0.48,
3.464,-0.11,-0.81,-0.31,0.29,0.46,0.48,
3.465,0.45,-0.79,-0.27,0.29,0.46,0.48,
3.465,0.45,-0.79,-0.27,0.31,0.49,0.47,
3.466,0.45,-0.79,-0.27,0.33,0.50,0.46,
3.478,0.45,-0.79,-0.27,0.36,0.54,0.44,
3.482,0.45,-0.79,-0.27,0.38,0.55,0.44,
3.483,0.45,-0.79,-0.27,0.40,0.56,0.42,
3.484,0.77,-0.70,-0.36,0.40,0.56,0.42,
3.484,0.77,-0.70,-0.36,0.42,0.58,0.41,
3.485,0.77,-0.70,-0.36,0.45,0.59,0.40,
3.485,0.77,-0.70,-0.36,0.49,0.60,0.38,
3.486,0.77,-0.70,-0.36,0.50,0.61,0.38,
3.516,0.77,-0.70,-0.36,0.52,0.61,0.37,
3.517,0.50,-0.57,-0.70,0.52,0.61,0.37,
3.517,0.50,-0.57,-0.70,0.55,0.61,0.37,
3.518,0.50,-0.57,-0.70,0.57,0.61,0.36,
3.518,0.50,-0.57,-0.70,0.59,0.60,0.36,
3.519,0.50,-0.57,-0.70,0.60,0.59,0.37,
3.519,0.50,-0.57,-0.70,0.62,0.58,0.37,
3.519,0.05,-0.59,-1.45,0.62,0.58,0.37,
3.52,0.05,-0.59,-1.45,0.63,0.56,0.38,
3.52,0.05,-0.59,-1.45,0.64,0.54,0.38,
3.521,0.05,-0.59,-1.45,0.64,0.51,0.40,
3.521,0.05,-0.59,-1.45,0.64,0.50,0.40,
3.522,0.05,-0.59,-1.45,0.64,0.49,0.41,
3.522,-0.41,-0.75,-2.53,0.64,0.49,0.41,
3.522,-0.41,-0.75,-2.53,0.63,0.48,0.43,
3.523,-0.41,-0.75,-2.53,0.62,0.46,0.44,
3.523,-0.41,-0.75,-2.53,0.59,0.44,0.46,
3.523,-0.41,-0.75,-2.53,0.58,0.43,0.47,
3.524,-0.41,-0.75,-2.53,0.56,0.42,0.49,
3.524,-0.90,-0.82,-3.43,0.56,0.42,0.49,
3.525,-0.90,-0.82,-3.43,0.54,0.41,0.51,
3.525,-0.90,-0.82,-3.43,0.51,0.40,0.53,
3.525,-0.90,-0.82,-3.43,0.48,0.38,0.57,
3.526,-0.90,-0.82,-3.43,0.47,0.37,0.58,
3.526,-0.90,-0.82,-3.43,0.45,0.36,0.61,
3.527,-1.16,-0.87,-3.74,0.45,0.36,0.61,
3.527,-1.16,-0.87,-3.74,0.41,0.34,0.65,
3.527,-1.16,-0.87,-3.74,0.41,0.33,0.66,
3.528,-1.16,-0.87,-3.74,0.38,0.32,0.69,
3.528,-1.16,-0.87,-3.74,0.38,0.31,0.70,
3.528,-1.16,-0.87,-3.74,0.36,0.30,0.72,
3.531,-0.86,-0.93,-3.52,0.36,0.30,0.72,
3.532,-0.86,-0.93,-3.52,0.35,0.29,0.74,
3.546,-0.86,-0.93,-3.52,0.35,0.27,0.75,
3.547,-0.86,-0.93,-3.52,0.34,0.25,0.76,
3.547,-0.86,-0.93,-3.52,0.34,0.25,0.76,
3.548,-0.86,-0.93,-3.52,0.34,0.23,0.76,
3.548,-0.14,-0.93,-3.00,0.34,0.23,0.76,
3.548,-0.14,-0.93,-3.00,0.34,0.22,0.76,
3.549,-0.14,-0.93,-3.00,0.34,0.20,0.75,
3.549,-0.14,-0.93,-3.00,0.34,0.19,0.74,
3.549,-0.14,-0.93,-3.00,0.34,0.18,0.73,
3.55,-0.14,-0.93,-3.00,0.35,0.17,0.72,
3.553,0.41,-0.79,-2.61,0.35,0.17,0.72,
3.556,0.41,-0.79,-2.61,0.35,0.15,0.71,
3.556,0.41,-0.79,-2.61,0.35,0.14,0.69,
3.558,0.41,-0.79,-2.61,0.35,0.13,0.67,
3.559,0.41,-0.79,-2.61,0.35,0.13,0.66,
3.559,0.41,-0.79,-2.61,0.35,0.12,0.64,
3.561,0.57,-0.72,-2.51,0.35,0.12,0.64,
3.562,0.57,-0.72,-2.51,0.35,0.11,0.63,
3.563,0.57,-0.72,-2.51,0.34,0.11,0.61,
3.566,0.57,-0.72,-2.51,0.34,0.10,0.60,
3.57,0.57,-0.72,-2.51,0.33,0.10,0.59,
3.571,0.57,-0.72,-2.51,0.33,0.10,0.58,
3.571,0.48,-0.81,-2.59,0.33,0.10,0.58,
3.572,0.48,-0.81,-2.59,0.32,0.11,0.57,
3.574,0.48,-0.81,-2.59,0.31,0.11,0.56,
3.576,0.48,-0.81,-2.59,0.30,0.11,0.55,
3.578,0.48,-0.81,-2.59,0.30,0.12,0.54,
3.579,0.48,-0.81,-2.59,0.29,0.12,0.54,
3.581,0.18,-0.93,-2.68,0.29,0.12,0.54,
3.583,0.18,-0.93,-2.68,0.28,0.13,0.54,
3.584,0.18,-0.93,-2.68,0.27,0.13,0.53,
3.589,0.18,-0.93,-2.68,0.25,0.14,0.53,
3.591,0.18,-0.93,-2.68,0.24,0.15,0.53,
3.592,0.18,-0.93,-2.68,0.23,0.15,0.53,
3.592,-0.12,-1.06,-2.74,0.23,0.15,0.53,
3.594,-0.12,-1.06,-2.74,0.22,0.16,0.53,
3.594,-0.12,-1.06,-2.74,0.21,0.16,0.53,
3.598,-0.12,-1.06,-2.74,0.20,0.16,0.54,
3.598,-0.12,-1.06,-2.74,0.20,0.16,0.54,
3.599,-0.12,-1.06,-2.74,0.19,0.15,0.55,
3.603,-0.35,-1.11,-2.74,0.19,0.15,0.55,
3.604,-0.35,-1.11,-2.74,0.18,0.14,0.55,
3.604,-0.35,-1.11,-2.74,0.18,0.13,0.55,
3.606,-0.35,-1.11,-2.74,0.16,0.11,0.56,
3.607,-0.35,-1.11,-2.74,0.16,0.10,0.56,
3.609,-0.35,-1.11,-2.74,0.16,0.08,0.56,
3.611,-0.39,-1.11,-2.73,0.16,0.08,0.56,
3.612,-0.39,-1.11,-2.73,0.15,0.06,0.56,
3.613,-0.39,-1.11,-2.73,0.15,0.03,0.56,
3.625,-0.39,-1.11,-2.73,0.14,-0.01,0.56,
3.627,-0.39,-1.11,-2.73,0.14,-0.03,0.56,
3.628,-0.39,-1.11,-2.73,0.14,-0.06,0.56,
3.629,-0.29,-1.08,-2.81,0.14,-0.06,0.56,
3.631,-0.29,-1.08,-2.81,0.13,-0.09,0.56,
3.632,-0.29,-1.08,-2.81,0.12,-0.12,0.55,
3.633,-0.29,-1.08,-2.81,0.11,-0.16,0.54,
3.634,-0.29,-1.08,-2.81,0.11,-0.17,0.54,
3.634,-0.29,-1.08,-2.81,0.11,-0.19,0.54,
3.635,-0.20,-1.11,-2.69,0.11,-0.19,0.54,
3.635,-0.20,-1.11,-2.69,0.10,-0.21,0.54,
3.635,-0.20,-1.11,-2.69,0.09,-0.22,0.53,
3.636,-0.20,-1.11,-2.69,0.08,-0.23,0.53,
3.645,-0.20,-1.11,-2.69,0.08,-0.24,0.53,
3.646,-0.20,-1.11,-2.69,0.07,-0.23,0.52,
3.646,-0.23,-1.13,-2.54,0.07,-0.23,0.52,
3.647,-0.23,-1.13,-2.54,0.06,-0.23,0.52,
3.647,-0.23,-1.13,-2.54,0.05,-0.22,0.52,
3.679,-0.23,-1.13,-2.54,0.03,-0.20,0.52,
3.679,-0.23,-1.13,-2.54,0.02,-0.19,0.53,
3.68,-0.23,-1.13,-2.54,0.01,-0.17,0.53,
3.68,-0.41,-1.19,-2.31,0.01,-0.17,0.53,
3.681,-0.41,-1.19,-2.31,-0.00,-0.15,0.53,
3.681,-0.41,-1.19,-2.31,-0.02,-0.13,0.53,
3.682,-0.41,-1.19,-2.31,-0.04,-0.08,0.54,
3.682,-0.41,-1.19,-2.31,-0.05,-0.07,0.54,
3.682,-0.41,-1.19,-2.31,-0.06,-0.04,0.54,
3.683,-0.37,-1.26,-2.08,-0.06,-0.04,0.54,
3.684,-0.37,-1.26,-2.08,-0.08,-0.00,0.55,
3.684,-0.37,-1.26,-2.08,-0.10,0.04,0.54,
3.684,-0.37,-1.26,-2.08,-0.12,0.10,0.54,
3.685,-0.37,-1.26,-2.08,-0.13,0.12,0.54,
3.685,-0.37,-1.26,-2.08,-0.14,0.16,0.53,
3.686,-0.04,-1.29,-1.62,-0.14,0.16,0.53,
3.686,-0.04,-1.29,-1.62,-0.15,0.20,0.52,
3.686,-0.04,-1.29,-1.62,-0.16,0.24,0.52,
3.687,-0.04,-1.29,-1.62,-0.17,0.30,0.50,
3.687,-0.04,-1.29,-1.62,-0.18,0.32,0.50,
3.688,-0.04,-1.29,-1.62,-0.18,0.35,0.49,
3.688,0.14,-1.17,-0.97,-0.18,0.35,0.49,
3.688,0.14,-1.17,-0.97,-0.18,0.38,0.48,
3.689,0.14,-1.17,-0.97,-0.18,0.40,0.47,
3.689,0.14,-1.17,-0.97,-0.17,0.43,0.45,
3.69,0.14,-1.17,-0.97,-0.17,0.44,0.45,
3.69,0.14,-1.17,-0.97,-0.17,0.44,0.44,
3.69,0.20,-1.15,-0.48,-0.17,0.44,0.44,
3.691,0.20,-1.15,-0.48,-0.16,0.44,0.43,
3.695,0.20,-1.15,-0.48,-0.15,0.43,0.42,
3.696,0.20,-1.15,-0.48,-0.14,0.41,0.41,
3.697,0.20,-1.15,-0.48,-0.14,0.40,0.41,
3.7,0.20,-1.15,-0.48,-0.13,0.38,0.40,
3.707,0.11,-1.09,-0.25,-0.13,0.38,0.40,
3.708,0.11,-1.09,-0.25,-0.12,0.35,0.39,
3.709,0.11,-1.09,-0.25,-0.11,0.32,0.39,
3.709,0.11,-1.09,-0.25,-0.10,0.25,0.38,
3.709,0.11,-1.09,-0.25,-0.09,0.21,0.37,
3.709,0.11,-1.09,-0.25,-0.08,0.19,0.37,
3.714,0.01,-1.10,-0.45,-0.08,0.19,0.37,
3.715,0.01,-1.10,-0.45,-0.08,0.14,0.37,
3.715,0.01,-1.10,-0.45,-0.09,0.10,0.37,
3.72,0.01,-1.10,-0.45,-0.10,0.02,0.37,
3.721,0.01,-1.10,-0.45,-0.10,-0.03,0.37,
3.722,0.01,-1.10,-0.45,-0.11,-0.05,0.37,
3.722,-0.16,-1.05,-0.88,-0.11,-0.05,0.37,
3.722,-0.16,-1.05,-0.88,-0.12,-0.09,0.38,
3.723,-0.16,-1.05,-0.88,-0.14,-0.14,0.38,
3.727,-0.16,-1.05,-0.88,-0.16,-0.19,0.39,
3.728,-0.16,-1.05,-0.88,-0.18,-0.22,0.40,
3.731,-0.16,-1.05,-0.88,-0.19,-0.23,0.40,
3.732,-0.21,-1.05,-1.18,-0.19,-0.23,0.40,
3.732,-0.21,-1.05,-1.18,-0.22,-0.26,0.41,
3.733,-0.21,-1.05,-1.18,-0.25,-0.27,0.41,
3.736,-0.21,-1.05,-1.18,-0.28,-0.29,0.40,
3.737,-0.21,-1.05,-1.18,-0.31,-0.29,0.40,
3.739,-0.21,-1.05,-1.18,-0.32,-0.29,0.39,
3.741,0.22,-0.85,-1.14,-0.32,-0.29,0.39,
3.741,0.22,-0.85,-1.14,-0.34,-0.28,0.39,
3.743,0.22,-0.85,-1.14,-0.37,-0.27,0.37,
3.746,0.22,-0.85,-1.14,-0.41,-0.26,0.35,
3.748,0.22,-0.85,-1.14,-0.44,-0.24,0.34,
3.749,0.22,-0.85,-1.14,-0.46,-0.23,0.33,
3.753,0.96,-0.81,-0.99,-0.46,-0.23,0.33,
3.756,0.96,-0.81,-0.99,-0.50,-0.22,0.32,
3.757,0.96,-0.81,-0.99,-0.54,-0.19,0.30,
3.758,0.96,-0.81,-0.99,-0.61,-0.15,0.28,
3.76,0.96,-0.81,-0.99,-0.65,-0.12,0.26,
3.762,0.96,-0.81,-0.99,-0.68,-0.10,0.25,
3.764,1.37,-1.01,-0.98,-0.68,-0.10,0.25,
3.764,1.37,-1.01,-0.98,-0.73,-0.06,0.24,
3.765,1.37,-1.01,-0.98,-0.78,-0.01,0.23,
3.767,1.37,-1.01,-0.98,-0.86,0.06,0.20,
3.768,1.37,-1.01,-0.98,-0.91,0.11,0.19,
3.769,1.37,-1.01,-0.98,-0.93,0.14,0.18,
3.783,1.53,-1.21,-0.80,-0.93,0.14,0.18,
3.784,1.53,-1.21,-0.80,-0.98,0.19,0.16,
3.785,1.53,-1.21,-0.80,-1.03,0.24,0.15,
3.785,1.53,-1.21,-0.80,-1.10,0.32,0.13,
3.785,1.53,-1.21,-0.80,-1.15,0.38,0.13,
3.786,1.53,-1.21,-0.80,-1.17,0.40,0.12,
3.786,1.25,-1.18,-0.37,-1.17,0.40,0.12,
3.786,1.25,-1.18,-0.37,-1.21,0.45,0.12,
3.787,1.25,-1.18,-0.37,-1.25,0.50,0.12,
3.787,1.25,-1.18,-0.37,-1.30,0.57,0.12,
3.787,1.25,-1.18,-0.37,-1.33,0.62,0.13,
3.789,1.25,-1.18,-0.37,-1.34,0.65,0.13,
3.791,1.00,-1.23,0.30,-1.34,0.65,0.13,
3.791,1.00,-1.23,0.30,-1.37,0.69,0.14,
3.792,1.00,-1.23,0.30,-1.38,0.74,0.14,
3.795,1.00,-1.23,0.30,-1.40,0.82,0.16,
3.796,1.00,-1.23,0.30,-1.40,0.86,0.17,
3.799,1.00,-1.23,0.30,-1.40,0.88,0.17,
3.801,0.92,-1.30,0.91,-1.40,0.88,0.17,
3.801,0.92,-1.30,0.91,-1.39,0.91,0.18,
3.802,0.92,-1.30,0.91,-1.38,0.94,0.19,
3.806,0.92,-1.30,0.91,-1.36,0.96,0.21,
3.807,0.92,-1.30,0.91,-1.33,0.96,0.23,
3.809,0.92,-1.30,0.91,-1.32,0.95,0.23,
3.812,0.94,-1.29,1.35,-1.32,0.95,0.23,
3.851,0.94,-1.29,1.35,-1.29,0.92,0.25,
3.852,0.94,-1.29,1.35,-1.25,0.88,0.26,
3.852,0.94,-1.29,1.35,-1.20,0.79,0.28,
3.853,0.94,-1.29,1.35,-1.15,0.72,0.29,
3.854,0.94,-1.29,1.35,-1.13,0.67,0.29,
3.854,1.13,-0.92,1.06,-1.13,0.67,0.29,
3.854,1.13,-0.92,1.06,-1.10,0.58,0.30,
3.855,1.13,-0.92,1.06,-1.06,0.47,0.29,
3.855,1.13,-0.92,1.06,-0.99,0.24,0.29,
3.856,1.13,-0.92,1.06,-0.98,0.18,0.28,
3.856,1.13,-0.92,1.06,-0.95,0.06,0.27,
3.857,1.69,-0.54,0.22,-0.95,0.06,0.27,
3.858,1.69,-0.54,0.22,-0.93,-0.07,0.26,
3.858,1.69,-0.54,0.22,-0.91,-0.19,0.25,
3.859,1.69,-0.54,0.22,-0.90,-0.31,0.24,
3.859,1.69,-0.54,0.22,-0.89,-0.41,0.24,
3.86,1.69,-0.54,0.22,-0.89,-0.51,0.23,
3.86,1.97,-0.36,-0.56,-0.89,-0.51,0.23,
3.861,1.97,-0.36,-0.56,-0.88,-0.59,0.23,
3.861,1.97,-0.36,-0.56,-0.89,-0.66,0.23,
3.862,1.97,-0.36,-0.56,-0.90,-0.70,0.22,
3.862,1.97,-0.36,-0.56,-0.92,-0.73,0.22,
3.862,1.97,-0.36,-0.56,-0.94,-0.74,0.22,
3.863,2.36,-0.42,-0.90,-0.94,-0.74,0.22,
3.863,2.36,-0.42,-0.90,-0.96,-0.74,0.22,
3.863,2.36,-0.42,-0.90,-1.00,-0.76,0.23,
3.864,2.36,-0.42,-0.90,-1.05,-0.75,0.24,
3.864,2.36,-0.42,-0.90,-1.09,-0.72,0.25,
3.864,2.36,-0.42,-0.90,-1.14,-0.67,0.26,
3.865,2.27,-0.61,-0.96,-1.14,-0.67,0.26,
3.865,2.27,-0.61,-0.96,-1.18,-0.60,0.26,
3.866,2.27,-0.61,-0.96,-1.23,-0.51,0.26,
3.866,2.27,-0.61,-0.96,-1.27,-0.42,0.26,
3.866,2.27,-0.61,-0.96,-1.31,-0.31,0.26,
3.869,2.27,-0.61,-0.96,-1.35,-0.20,0.27,
3.875,1.80,-0.61,0.13,-1.35,-0.20,0.27,
3.876,1.80,-0.61,0.13,-1.37,-0.09,0.29,
3.876,1.80,-0.61,0.13,-1.40,0.03,0.30,
3.876,1.80,-0.61,0.13,-1.43,0.18,0.33,
3.877,1.80,-0.61,0.13,-1.44,0.23,0.34,
3.881,1.80,-0.61,0.13,-1.45,0.32,0.37,
3.881,1.44,-0.57,1.01,-1.45,0.32,0.37,
3.882,1.44,-0.57,1.01,-1.47,0.40,0.40,
3.884,1.44,-0.57,1.01,-1.47,0.47,0.43,
3.887,1.44,-0.57,1.01,-1.48,0.53,0.45,
3.888,1.44,-0.57,1.01,-1.48,0.57,0.48,
3.89,1.44,-0.57,1.01,-1.46,0.60,0.50,
3.891,1.27,-0.14,1.97,-1.46,0.60,0.50,
3.892,1.27,-0.14,1.97,-1.45,0.61,0.53,
3.893,1.27,-0.14,1.97,-1.42,0.62,0.55,
3.896,1.27,-0.14,1.97,-1.38,0.60,0.57,
3.908,1.27,-0.14,1.97,-1.33,0.56,0.59,
3.909,1.27,-0.14,1.97,-1.27,0.50,0.61,
3.91,1.76,0.84,3.08,-1.27,0.50,0.61,
3.91,1.76,0.84,3.08,-1.19,0.40,0.63,
3.91,1.76,0.84,3.08,-1.11,0.27,0.64,
3.91,1.76,0.84,3.08,-0.97,-0.01,0.66,
3.911,1.76,0.84,3.08,-0.92,-0.12,0.67,
3.911,1.76,0.84,3.08,-0.82,-0.38,0.68,
3.928,3.27,2.25,3.87,-0.82,-0.38,0.68,
3.931,3.27,2.25,3.87,-0.72,-0.67,0.68,
3.932,3.27,2.25,3.87,-0.61,-0.99,0.69,
3.933,3.27,2.25,3.87,-0.49,-1.33,0.69,
3.934,3.27,2.25,3.87,-0.37,-1.68,0.70,
3.934,3.27,2.25,3.87,-0.25,-2.02,0.71,
3.935,4.63,3.75,4.30,-0.25,-2.02,0.71,
3.935,4.63,3.75,4.30,-0.12,-2.35,0.72,
3.936,4.63,3.75,4.30,0.01,-2.66,0.73,
3.936,4.63,3.75,4.30,0.13,-2.93,0.74,
3.936,4.63,3.75,4.30,0.25,-3.17,0.75,
3.937,4.63,3.75,4.30,0.37,-3.37,0.75,
3.938,5.69,5.36,4.77,0.37,-3.37,0.75,
3.939,5.69,5.36,4.77,0.48,-3.53,0.75,
3.94,5.69,5.36,4.77,0.59,-3.66,0.74,
3.941,5.69,5.36,4.77,0.69,-3.74,0.72,
3.942,5.69,5.36,4.77,0.78,-3.79,0.70,
3.943,5.69,5.36,4.77,0.87,-3.79,0.67,
3.943,7.80,6.23,4.89,0.87,-3.79,0.67,
3.944,7.80,6.23,4.89,0.94,-3.74,0.63,
3.945,7.80,6.23,4.89,1.01,-3.64,0.59,
3.948,7.80,6.23,4.89,1.09,-3.39,0.52,
3.949,7.80,6.23,4.89,1.12,-3.28,0.50,
3.949,7.80,6.23,4.89,1.15,-3.04,0.45,
3.952,10.17,7.06,4.31,1.15,-3.04,0.45,
3.956,10.17,7.06,4.31,1.18,-2.79,0.40,
3.956,10.17,7.06,4.31,1.19,-2.53,0.34,
3.957,10.17,7.06,4.31,1.20,-2.27,0.27,
3.957,10.17,7.06,4.31,1.19,-2.03,0.19,
3.959,10.17,7.06,4.31,1.18,-1.80,0.09,
3.961,11.30,8.10,3.00,1.18,-1.80,0.09,
3.963,11.30,8.10,3.00,1.16,-1.59,-0.01,
3.964,11.30,8.10,3.00,1.15,-1.40,-0.13,
3.969,11.30,8.10,3.00,1.13,-1.22,-0.26,
3.971,11.30,8.10,3.00,1.11,-1.07,-0.40,
3.972,11.30,8.10,3.00,1.10,-0.94,-0.55,
3.972,12.24,10.34,1.70,1.10,-0.94,-0.55,
3.974,12.24,10.34,1.70,1.09,-0.85,-0.71,
3.974,12.24,10.34,1.70,1.08,-0.78,-0.87,
3.977,12.24,10.34,1.70,1.07,-0.75,-1.11,
3.978,12.24,10.34,1.70,1.07,-0.76,-1.19,
4.011,12.24,10.34,1.70,1.07,-0.81,-1.35,
4.011,11.09,12.38,0.14,1.07,-0.81,-1.35,
4.012,11.09,12.38,0.14,1.06,-0.90,-1.50,
4.012,11.09,12.38,0.14,1.07,-1.02,-1.65,
4.013,11.09,12.38,0.14,1.08,-1.26,-1.86,
4.013,11.09,12.38,0.14,1.09,-1.35,-1.92,
4.014,11.09,12.38,0.14,1.11,-1.55,-2.03,
4.014,7.92,14.07,-1.33,1.11,-1.55,-2.03,
4.015,7.92,14.07,-1.33,1.14,-1.77,-2.13,
4.015,7.92,14.07,-1.33,1.19,-2.00,-2.21,
4.016,7.92,14.07,-1.33,1.27,-2.39,-2.30,
4.016,7.92,14.07,-1.33,1.31,-2.53,-2.32,
4.017,7.92,14.07,-1.33,1.38,-2.81,-2.35,
4.017,2.44,15.25,-0.73,1.38,-2.81,-2.35,
4.018,2.44,15.25,-0.73,1.48,-3.08,-2.36,
4.018,2.44,15.25,-0.73,1.58,-3.34,-2.35,
4.019,2.44,15.25,-0.73,1.76,-3.64,-2.30,
4.019,2.44,15.25,-0.73,1.82,-3.72,-2.27,
4.02,2.44,15.25,-0.73,1.94,-3.85,-2.21,
4.02,-2.59,15.19,1.04,1.94,-3.85,-2.21,
4.021,-2.59,15.19,1.04,2.06,-3.94,-2.13,
4.021,-2.59,15.19,1.04,2.17,-4.01,-2.03,
4.022,-2.59,15.19,1.04,2.32,-4.05,-1.86,
4.022,-2.59,15.19,1.04,2.37,-4.05,-1.80,
4.022,-2.59,15.19,1.04,2.46,-4.04,-1.68,
4.023,-5.46,13.60,2.02,2.46,-4.04,-1.68,
4.023,-5.46,13.60,2.02,2.54,-4.00,-1.56,
4.024,-5.46,13.60,2.02,2.62,-3.95,-1.45,
4.027,-5.46,13.60,2.02,2.73,-3.84,-1.30,
4.028,-5.46,13.60,2.02,2.76,-3.79,-1.25,
4.029,-5.46,13.60,2.02,2.83,-3.67,-1.17,
4.032,-6.14,13.63,2.32,2.83,-3.67,-1.17,
4.033,-6.14,13.63,2.32,2.89,-3.54,-1.10,
4.033,-6.14,13.63,2.32,2.95,-3.40,-1.04,
4.036,-6.14,13.63,2.32,3.03,-3.17,-0.96,
4.036,-6.14,13.63,2.32,3.06,-3.09,-0.94,
4.039,-6.14,13.63,2.32,3.11,-2.94,-0.91,
4.04,-4.75,14.32,2.57,3.11,-2.94,-0.91,
4.041,-4.75,14.32,2.57,3.16,-2.80,-0.89,
4.049,-4.75,14.32,2.57,3.20,-2.67,-0.87,
4.049,-4.75,14.32,2.57,3.27,-2.49,-0.87,
4.05,-4.75,14.32,2.57,3.29,-2.44,-0.88,
4.05,-4.75,14.32,2.57,3.33,-2.33,-0.90,
4.052,-2.83,14.30,2.36,3.33,-2.33,-0.90,
4.052,-2.83,14.30,2.36,3.38,-2.22,-0.93,
4.053,-2.83,14.30,2.36,3.42,-2.12,-0.96,
4.062,-2.83,14.30,2.36,3.49,-1.97,-1.01,
4.062,-2.83,14.30,2.36,3.51,-1.92,-1.03,
4.062,-2.83,14.30,2.36,3.55,-1.82,-1.07,
4.063,-1.22,12.54,1.92,3.55,-1.82,-1.07,
4.063,-1.22,12.54,1.92,3.60,-1.72,-1.12,
4.063,-1.22,12.54,1.92,3.64,-1.63,-1.16,
4.069,-1.22,12.54,1.92,3.72,-1.50,-1.23,
4.07,-1.22,12.54,1.92,3.75,-1.46,-1.26,
4.07,-1.22,12.54,1.92,3.80,-1.40,-1.30,
4.07,-0.58,9.67,1.08,3.80,-1.40,-1.30,
4.071,-0.58,9.67,1.08,3.86,-1.34,-1.35,
4.073,-0.58,9.67,1.08,3.92,-1.29,-1.40,
4.078,-0.58,9.67,1.08,4.02,-1.21,-1.47,
4.078,-0.58,9.67,1.08,4.05,-1.19,-1.49,
4.079,-0.58,9.67,1.08,4.12,-1.13,-1.53,
4.081,0.22,5.84,0.16,4.12,-1.13,-1.53,
4.081,0.22,5.84,0.16,4.18,-1.08,-1.56,
4.083,0.22,5.84,0.16,4.24,-1.04,-1.60,
4.086,0.22,5.84,0.16,4.33,-1.00,-1.66,
4.086,0.22,5.84,0.16,4.35,-1.00,-1.69,
4.089,0.22,5.84,0.16,4.40,-0.99,-1.73,
4.091,0.82,1.63,-1.15,4.40,-0.99,-1.73,
4.091,0.82,1.63,-1.15,4.45,-0.98,-1.78,
4.093,0.82,1.63,-1.15,4.49,-0.96,-1.82,
4.097,0.82,1.63,-1.15,4.53,-0.92,-1.87,
4.104,0.82,1.63,-1.15,4.54,-0.90,-1.89,
4.104,0.82,1.63,-1.15,4.55,-0.84,-1.90,
4.105,0.35,-2.26,-2.81,4.55,-0.84,-1.90,
4.105,0.35,-2.26,-2.81,4.54,-0.77,-1.91,
4.106,0.35,-2.26,-2.81,4.52,-0.67,-1.91,
4.106,0.35,-2.26,-2.81,4.46,-0.52,-1.90,
4.106,0.35,-2.26,-2.81,4.43,-0.46,-1.90,
4.109,0.35,-2.26,-2.81,4.38,-0.35,-1.89,
4.112,-1.53,-6.51,-4.39,4.38,-0.35,-1.89,
4.117,-1.53,-6.51,-4.39,4.31,-0.24,-1.89,
4.118,-1.53,-6.51,-4.39,4.25,-0.14,-1.91,
4.12,-1.53,-6.51,-4.39,4.15,0.02,-1.95,
4.121,-1.53,-6.51,-4.39,4.11,0.07,-1.98,
4.122,-1.53,-6.51,-4.39,4.05,0.16,-2.03,
4.122,-3.55,-9.62,-5.40,4.05,0.16,-2.03,
4.123,-3.55,-9.62,-5.40,3.98,0.23,-2.10,
4.124,-3.55,-9.62,-5.40,3.92,0.28,-2.18,
4.127,-3.55,-9.62,-5.40,3.85,0.33,-2.29,
4.13,-3.55,-9.62,-5.40,3.83,0.33,-2.32,
4.132,-3.55,-9.62,-5.40,3.79,0.32,-2.39,
4.134,-4.50,-11.93,-5.31,3.79,0.32,-2.39,
4.137,-4.50,-11.93,-5.31,3.77,0.29,-2.43,
4.138,-4.50,-11.93,-5.31,3.76,0.23,-2.45,
4.139,-4.50,-11.93,-5.31,3.76,0.10,-2.46,
4.14,-4.50,-11.93,-5.31,3.77,0.05,-2.45,
4.14,-4.50,-11.93,-5.31,3.80,-0.08,-2.42,
4.142,-6.33,-13.38,-3.96,3.80,-0.08,-2.42,
4.142,-6.33,-13.38,-3.96,3.84,-0.21,-2.38,
4.143,-6.33,-13.38,-3.96,3.90,-0.35,-2.34,
4.172,-6.33,-13.38,-3.96,4.00,-0.58,-2.26,
4.172,-6.33,-13.38,-3.96,4.04,-0.66,-2.24,
4.172,-6.33,-13.38,-3.96,4.13,-0.81,-2.19,
4.173,-6.67,-15.00,-1.79,4.13,-0.81,-2.19,
4.173,-6.67,-15.00,-1.79,4.22,-0.97,-2.15,
4.173,-6.67,-15.00,-1.79,4.31,-1.13,-2.12,
4.174,-6.67,-15.00,-1.79,4.45,-1.35,-2.08,
4.174,-6.67,-15.00,-1.79,4.50,-1.42,-2.07,
4.174,-6.67,-15.00,-1.79,4.59,-1.57,-2.06,
4.174,-5.02,-16.54,-1.10,4.59,-1.57,-2.06,
4.175,-5.02,-16.54,-1.10,4.67,-1.71,-2.06,
4.175,-5.02,-16.54,-1.10,4.74,-1.84,-2.06,
4.175,-5.02,-16.54,-1.10,4.84,-2.01,-2.08,
4.176,-5.02,-16.54,-1.10,4.87,-2.07,-2.09,
4.176,-5.02,-16.54,-1.10,4.91,-2.17,-2.12,
4.176,-2.90,-18.32,-1.48,4.91,-2.17,-2.12,
4.177,-2.90,-18.32,-1.48,4.95,-2.26,-2.16,
4.177,-2.90,-18.32,-1.48,4.98,-2.33,-2.20,
4.178,-2.90,-18.32,-1.48,5.01,-2.40,-2.29,
4.178,-2.90,-18.32,-1.48,5.01,-2.41,-2.32,
4.178,-2.90,-18.32,-1.48,5.01,-2.41,-2.37,
4.183,-1.33,-19.62,-2.71,5.01,-2.41,-2.37,
4.184,-1.33,-19.62,-2.71,5.01,-2.39,-2.41,
4.185,-1.33,-19.62,-2.71,4.99,-2.36,-2.46,
4.188,-1.33,-19.62,-2.71,4.95,-2.26,-2.52,
4.188,-1.33,-19.62,-2.71,4.94,-2.21,-2.54,
4.189,-1.33,-19.62,-2.71,4.89,-2.11,-2.57,
4.193,-1.89,-20.62,-3.96,4.89,-2.11,-2.57,
4.194,-1.89,-20.62,-3.96,4.84,-1.98,-2.59,
4.194,-1.89,-20.62,-3.96,4.77,-1.84,-2.59,
4.196,-1.89,-20.62,-3.96,4.65,-1.62,-2.60,
4.197,-1.89,-20.62,-3.96,4.61,-1.54,-2.59,
4.204,-1.89,-20.62,-3.96,4.52,-1.38,-2.58,
4.204,-3.38,-20.97,-5.91,4.52,-1.38,-2.58,
4.205,-3.38,-20.97,-5.91,4.42,-1.23,-2.57,
4.206,-3.38,-20.97,-5.91,4.32,-1.07,-2.54,
4.206,-3.38,-20.97,-5.91,4.16,-0.87,-2.50,
4.206,-3.38,-20.97,-5.91,4.10,-0.80,-2.49,
4.21,-3.38,-20.97,-5.91,3.99,-0.68,-2.46,
4.211,-3.92,-20.80,-7.96,3.99,-0.68,-2.46,
4.212,-3.92,-20.80,-7.96,3.88,-0.57,-2.43,
4.212,-3.92,-20.80,-7.96,3.77,-0.48,-2.41,
4.219,-3.92,-20.80,-7.96,3.60,-0.36,-2.36,
4.22,-3.92,-20.80,-7.96,3.54,-0.32,-2.35,
4.22,-3.92,-20.80,-7.96,3.43,-0.27,-2.32,
4.228,-3.88,-20.37,-9.86,3.43,-0.27,-2.32,
4.228,-3.88,-20.37,-9.86,3.31,-0.23,-2.29,
4.229,-3.88,-20.37,-9.86,3.20,-0.21,-2.26,
4.229,-3.88,-20.37,-9.86,3.02,-0.21,-2.22,
4.229,-3.88,-20.37,-9.86,2.96,-0.22,-2.20,
4.229,-3.88,-20.37,-9.86,2.85,-0.23,-2.17,
4.241,-3.61,-19.67,-11.58,2.85,-0.23,-2.17,
4.242,-3.61,-19.67,-11.58,2.73,-0.25,-2.14,
4.242,-3.61,-19.67,-11.58,2.62,-0.29,-2.10,
4.243,-3.61,-19.67,-11.58,2.45,-0.36,-2.05,
4.243,-3.61,-19.67,-11.58,2.39,-0.39,-2.03,
4.243,-3.61,-19.67,-11.58,2.28,-0.47,-1.99,
4.243,-3.02,-18.85,-12.47,2.28,-0.47,-1.99,
4.244,-3.02,-18.85,-12.47,2.15,-0.55,-1.94,
4.244,-3.02,-18.85,-12.47,2.02,-0.64,-1.90,
4.254,-3.02,-18.85,-12.47,1.82,-0.77,-1.82,
4.255,-3.02,-18.85,-12.47,1.75,-0.80,-1.79,
4.255,-3.02,-18.85,-12.47,1.60,-0.86,-1.73,
4.255,-1.81,-18.67,-13.53,1.60,-0.86,-1.73,
4.256,-1.81,-18.67,-13.53,1.44,-0.92,-1.65,
4.256,-1.81,-18.67,-13.53,1.27,-0.96,-1.56,
4.256,-1.81,-18.67,-13.53,0.98,-1.01,-1.42,
4.256,-1.81,-18.67,-13.53,0.88,-1.02,-1.37,
4.258,-1.81,-18.67,-13.53,0.66,-1.04,-1.26,
4.262,-1.43,-19.48,-14.35,0.66,-1.04,-1.26,
4.263,-1.43,-19.48,-14.35,0.44,-1.04,-1.14,
4.265,-1.43,-19.48,-14.35,0.21,-1.02,-1.01,
4.266,-1.43,-19.48,-14.35,-0.15,-0.94,-0.79,
4.267,-1.43,-19.48,-14.35,-0.27,-0.90,-0.71,
4.269,-1.43,-19.48,-14.35,-0.53,-0.80,-0.55,
4.271,-2.36,-19.59,-15.10,-0.53,-0.80,-0.55,
4.271,-2.36,-19.59,-15.10,-0.79,-0.68,-0.38,
4.273,-2.36,-19.59,-15.10,-1.06,-0.53,-0.20,
4.276,-2.36,-19.59,-15.10,-1.49,-0.28,0.07,
4.277,-2.36,-19.59,-15.10,-1.64,-0.20,0.15,
4.28,-2.36,-19.59,-15.10,-1.94,-0.03,0.31,
4.281,-2.39,-19.18,-14.87,-1.94,-0.03,0.31,
4.282,-2.39,-19.18,-14.87,-2.25,0.15,0.46,
4.283,-2.39,-19.18,-14.87,-2.57,0.32,0.59,
4.286,-2.39,-19.18,-14.87,-3.05,0.57,0.77,
4.287,-2.39,-19.18,-14.87,-3.21,0.64,0.82,
4.289,-2.39,-19.18,-14.87,-3.53,0.79,0.90,
4.291,-1.50,-17.46,-13.68,-3.53,0.79,0.90,
4.292,-1.50,-17.46,-13.68,-3.85,0.92,0.96,
4.293,-1.50,-17.46,-13.68,-4.15,1.03,1.00,
4.301,-1.50,-17.46,-13.68,-4.59,1.14,1.01,
4.302,-1.50,-17.46,-13.68,-4.72,1.16,1.01,
4.302,-1.50,-17.46,-13.68,-4.98,1.18,0.97,
4.303,1.01,-14.56,-10.49,-4.98,1.18,0.97,
4.303,1.01,-14.56,-10.49,-5.22,1.17,0.92,
4.303,1.01,-14.56,-10.49,-5.44,1.14,0.85,
4.306,1.01,-14.56,-10.49,-5.73,1.06,0.72,
4.307,1.01,-14.56,-10.49,-5.81,1.03,0.68,
4.309,1.01,-14.56,-10.49,-5.96,0.95,0.58,
4.311,4.68,-12.25,-5.24,-5.96,0.95,0.58,
4.345,4.68,-12.25,-5.24,-6.08,0.88,0.47,
4.346,4.68,-12.25,-5.24,-6.17,0.81,0.35,
4.346,4.68,-12.25,-5.24,-6.25,0.72,0.17,
4.347,4.68,-12.25,-5.24,-6.27,0.69,0.10,
4.348,4.68,-12.25,-5.24,-6.28,0.63,-0.03,
4.348,8.28,-10.76,1.43,-6.28,0.63,-0.03,
4.349,8.28,-10.76,1.43,-6.27,0.59,-0.16,
4.349,8.28,-10.76,1.43,-6.24,0.55,-0.30,
4.35,8.28,-10.76,1.43,-6.16,0.51,-0.50,
4.35,8.28,-10.76,1.43,-6.13,0.49,-0.58,
4.351,8.28,-10.76,1.43,-6.05,0.45,-0.72,
4.351,10.94,-10.19,7.34,-6.05,0.45,-0.72,
4.352,10.94,-10.19,7.34,-5.96,0.42,-0.87,
4.352,10.94,-10.19,7.34,-5.85,0.40,-1.01,
4.353,10.94,-10.19,7.34,-5.66,0.40,-1.21,
4.353,10.94,-10.19,7.34,-5.59,0.41,-1.28,
4.354,10.94,-10.19,7.34,-5.45,0.46,-1.40,
4.354,10.42,-9.47,10.49,-5.45,0.46,-1.40,
4.354,10.42,-9.47,10.49,-5.29,0.52,-1.52,
4.355,10.42,-9.47,10.49,-5.14,0.59,-1.64,
4.355,10.42,-9.47,10.49,-4.90,0.73,-1.80,
4.355,10.42,-9.47,10.49,-4.82,0.77,-1.86,
4.356,10.42,-9.47,10.49,-4.68,0.87,-1.96,
4.356,8.33,-8.25,10.10,-4.68,0.87,-1.96,
4.356,8.33,-8.25,10.10,-4.53,0.97,-2.06,
4.359,8.33,-8.25,10.10,-4.41,1.06,-2.14,
4.361,8.33,-8.25,10.10,-4.24,1.19,-2.25,
4.361,8.33,-8.25,10.10,-4.19,1.22,-2.27,
4.363,8.33,-8.25,10.10,-4.10,1.28,-2.31,
4.363,4.31,-7.16,7.14,-4.10,1.28,-2.31,
4.363,4.31,-7.16,7.14,-4.03,1.32,-2.33,
4.364,4.31,-7.16,7.14,-3.96,1.34,-2.33,
4.368,4.31,-7.16,7.14,-3.88,1.32,-2.28,
4.368,4.31,-7.16,7.14,-3.85,1.31,-2.25,
4.369,4.31,-7.16,7.14,-3.81,1.26,-2.16,
4.372,-0.82,-7.16,3.81,-3.81,1.26,-2.16,
4.372,-0.82,-7.16,3.81,-3.77,1.20,-2.06,
4.373,-0.82,-7.16,3.81,-3.74,1.13,-1.92,
4.376,-0.82,-7.16,3.81,-3.71,1.02,-1.68,
4.377,-0.82,-7.16,3.81,-3.71,0.98,-1.59,
4.379,-0.82,-7.16,3.81,-3.70,0.90,-1.39,
4.381,-4.20,-7.29,0.76,-3.70,0.90,-1.39,
4.381,-4.20,-7.29,0.76,-3.70,0.83,-1.19,
4.386,-4.20,-7.29,0.76,-3.72,0.77,-0.99,
4.387,-4.20,-7.29,0.76,-3.76,0.69,-0.70,
4.387,-4.20,-7.29,0.76,-3.77,0.67,-0.61,
4.389,-4.20,-7.29,0.76,-3.81,0.62,-0.43,
4.391,-4.47,-7.03,-1.97,-3.81,0.62,-0.43,
4.391,-4.47,-7.03,-1.97,-3.86,0.57,-0.26,
4.393,-4.47,-7.03,-1.97,-3.92,0.49,-0.12,
4.397,-4.47,-7.03,-1.97,-4.01,0.34,0.08,
4.4,-4.47,-7.03,-1.97,-4.04,0.27,0.13,
4.401,-4.47,-7.03,-1.97,-4.12,0.09,0.23,
4.401,-2.92,-5.68,-4.48,-4.12,0.09,0.23,
4.402,-2.92,-5.68,-4.48,-4.20,-0.12,0.31,
4.403,-2.92,-5.68,-4.48,-4.29,-0.37,0.37,
4.406,-2.92,-5.68,-4.48,-4.43,-0.79,0.43,
4.406,-2.92,-5.68,-4.48,-4.48,-0.94,0.44,
4.409,-2.92,-5.68,-4.48,-4.59,-1.25,0.46,
4.412,-1.09,-4.30,-5.42,-4.59,-1.25,0.46,
4.414,-1.09,-4.30,-5.42,-4.70,-1.56,0.48,
4.414,-1.09,-4.30,-5.42,-4.81,-1.87,0.50,
4.415,-1.09,-4.30,-5.42,-4.98,-2.32,0.52,
4.417,-1.09,-4.30,-5.42,-5.04,-2.46,0.53,
4.419,-1.09,-4.30,-5.42,-5.15,-2.72,0.54,
4.421,-0.07,-1.68,-3.81,-5.15,-2.72,0.54,
4.421,-0.07,-1.68,-3.81,-5.27,-2.96,0.54,
4.423,-0.07,-1.68,-3.81,-5.38,-3.16,0.54,
4.426,-0.07,-1.68,-3.81,-5.55,-3.41,0.51,
4.428,-0.07,-1.68,-3.81,-5.60,-3.48,0.50,
4.43,-0.07,-1.68,-3.81,-5.70,-3.59,0.46,
4.433,2.34,0.23,0.17,-5.70,-3.59,0.46,
4.433,2.34,0.23,0.17,-5.80,-3.65,0.42,
4.434,2.34,0.23,0.17,-5.88,-3.67,0.38,
4.441,2.34,0.23,0.17,-5.97,-3.62,0.31,
4.442,2.34,0.23,0.17,-5.99,-3.58,0.29,
4.442,2.34,0.23,0.17,-6.02,-3.49,0.25,
4.443,3.74,-0.61,5.78,-6.02,-3.49,0.25,
4.443,3.74,-0.61,5.78,-6.04,-3.37,0.23,
4.443,3.74,-0.61,5.78,-6.04,-3.22,0.21,
4.447,3.74,-0.61,5.78,-6.01,-2.96,0.19,
4.448,3.74,-0.61,5.78,-5.99,-2.86,0.19,
4.449,3.74,-0.61,5.78,-5.92,-2.66,0.17,
4.451,4.95,-1.83,13.19,-5.92,-2.66,0.17,
4.452,4.95,-1.83,13.19,-5.84,-2.45,0.16,
4.453,4.95,-1.83,13.19,-5.72,-2.24,0.14,
4.457,4.95,-1.83,13.19,-5.40,-1.83,0.10,
4.457,4.95,-1.83,13.19,-5.40,-1.83,0.10,
4.458,4.95,-1.83,13.19,-5.20,-1.62,0.08,
4.468,4.44,-1.29,21.52,-5.20,-1.62,0.08,
4.469,4.44,-1.29,21.52,-4.97,-1.42,0.08,
4.47,4.44,-1.29,21.52,-4.72,-1.21,0.08,
4.47,4.44,-1.29,21.52,-4.29,-0.90,0.11,
4.471,4.44,-1.29,21.52,-4.13,-0.79,0.13,
4.471,4.44,-1.29,21.52,-3.79,-0.59,0.19,
4.472,2.45,0.07,27.47,-3.79,-0.59,0.19,
4.472,2.45,0.07,27.47,-3.43,-0.40,0.26,
4.473,2.45,0.07,27.47,-3.06,-0.26,0.34,
4.476,2.45,0.07,27.47,-2.48,-0.15,0.47,
4.494,2.45,0.07,27.47,-2.29,-0.15,0.51,
4.533,2.45,0.07,27.47,-1.90,-0.18,0.60,
4.533,1.52,2.27,28.86,-1.90,-0.18,0.60,
4.534,1.52,2.27,28.86,-1.53,-0.28,0.67,
4.534,1.52,2.27,28.86,-1.16,-0.41,0.74,
4.535,1.52,2.27,28.86,-0.62,-0.68,0.79,
4.535,1.52,2.27,28.86,-0.44,-0.79,0.80,
4.536,1.52,2.27,28.86,-0.10,-1.01,0.79,
4.536,1.53,5.57,26.94,-0.10,-1.01,0.79,
4.537,1.53,5.57,26.94,0.22,-1.25,0.75,
4.537,1.53,5.57,26.94,0.54,-1.52,0.68,
4.537,1.53,5.57,26.94,0.98,-1.96,0.51,
4.538,1.53,5.57,26.94,1.12,-2.12,0.43,
4.539,1.53,5.57,26.94,1.38,-2.47,0.28,
4.54,2.10,7.65,22.63,1.38,-2.47,0.28,
4.543,2.10,7.65,22.63,1.62,-2.85,0.12,
4.544,2.10,7.65,22.63,1.83,-3.24,-0.02,
4.545,2.10,7.65,22.63,2.12,-3.80,-0.17,
4.545,2.10,7.65,22.63,2.21,-3.98,-0.20,
4.546,2.10,7.65,22.63,2.36,-4.30,-0.22,
4.546,0.94,5.19,17.21,2.36,-4.30,-0.22,
4.546,0.94,5.19,17.21,2.49,-4.60,-0.21,
4.547,0.94,5.19,17.21,2.58,-4.86,-0.18,
4.547,0.94,5.19,17.21,2.66,-5.16,-0.13,
4.548,0.94,5.19,17.21,2.67,-5.24,-0.11,
4.548,0.94,5.19,17.21,2.66,-5.36,-0.08,
4.549,-0.03,-0.16,12.69,2.66,-5.36,-0.08,
4.549,-0.03,-0.16,12.69,2.63,-5.42,-0.05,
4.55,-0.03,-0.16,12.69,2.58,-5.43,-0.03,
4.55,-0.03,-0.16,12.69,2.44,-5.38,-0.01,
4.55,-0.03,-0.16,12.69,2.39,-5.35,-0.01,
4.551,-0.03,-0.16,12.69,2.26,-5.25,0.01,
4.551,-1.39,-4.34,8.34,2.26,-5.25,0.01,
4.552,-1.39,-4.34,8.34,2.10,-5.12,0.04,
4.552,-1.39,-4.34,8.34,1.93,-4.97,0.09,
4.555,-1.39,-4.34,8.34,1.62,-4.77,0.18,
4.555,-1.39,-4.34,8.34,1.51,-4.72,0.21,
4.555,-1.39,-4.34,8.34,1.26,-4.64,0.28,
4.556,-2.50,-5.85,4.52,1.26,-4.64,0.28,
4.556,-2.50,-5.85,4.52,1.00,-4.61,0.34,
4.556,-2.50,-5.85,4.52,0.71,-4.61,0.41,
4.557,-2.50,-5.85,4.52,0.26,-4.62,0.49,
4.557,-2.50,-5.85,4.52,0.11,-4.62,0.52,
4.557,-2.50,-5.85,4.52,-0.20,-4.60,0.58,
4.558,-3.17,-4.62,4.25,-0.20,-4.60,0.58,
4.558,-3.17,-4.62,4.25,-0.51,-4.56,0.65,
4.558,-3.17,-4.62,4.25,-0.82,-4.50,0.72,
4.559,-3.17,-4.62,4.25,-1.30,-4.45,0.84,
4.559,-3.17,-4.62,4.25,-1.46,-4.45,0.88,
4.559,-3.17,-4.62,4.25,-1.77,-4.47,0.94,
4.561,-1.65,-0.98,7.99,-1.77,-4.47,0.94,
4.562,-1.65,-0.98,7.99,-2.09,-4.53,0.98,
4.563,-1.65,-0.98,7.99,-2.39,-4.61,0.98,
4.566,-1.65,-0.98,7.99,-2.81,-4.74,0.91,
4.567,-1.65,-0.98,7.99,-2.94,-4.77,0.87,
4.57,-1.65,-0.98,7.99,-3.20,-4.79,0.76,
4.572,5.72,2.36,14.01,-3.20,-4.79,0.76,
4.572,5.72,2.36,14.01,-3.58,-4.67,0.51,
4.573,5.72,2.36,14.01,-3.77,-4.42,0.39,
4.576,5.72,2.36,14.01,-4.66,-3.12,-0.13,
4.577,5.72,2.36,14.01,-5.02,-2.44,-0.26,
4.579,5.72,2.36,14.01,-6.06,0.28,-0.48,
4.582,19.01,5.77,11.33,-6.06,0.28,-0.48,
4.583,19.01,5.77,11.33,-7.52,3.92,-0.83,
4.584,19.01,5.77,11.33,-9.66,8.45,-1.24,
4.586,19.01,5.77,11.33,-13.54,14.79,-1.51,
4.588,19.01,5.77,11.33,-14.64,15.87,-1.48,
4.589,19.01,5.77,11.33,-16.37,15.99,-1.26,
4.59,20.53,2.16,7.42,-16.37,15.99,-1.26,
4.592,20.53,2.16,7.42,-17.64,13.12,-0.89,
4.594,20.53,2.16,7.42,-18.66,9.15,-0.64,
4.599,20.53,2.16,7.42,-19.71,4.67,-0.66,
4.601,20.53,2.16,7.42,-19.90,3.74,-0.77,
4.602,20.53,2.16,7.42,-20.14,2.86,-1.08,
4.603,28.59,-7.66,30.85,-20.14,2.86,-1.08,
4.604,28.59,-7.66,30.85,-20.18,2.98,-1.48,
4.605,28.59,-7.66,30.85,-20.07,3.33,-1.88,
4.617,28.59,-7.66,30.85,-19.54,2.01,-2.68,
4.619,28.59,-7.66,30.85,-19.21,1.31,-2.98,
4.62,28.59,-7.66,30.85,-18.41,0.88,-3.53,
4.622,40.02,-16.77,44.23,-18.41,0.88,-3.53,
4.623,40.02,-16.77,44.23,-17.43,1.26,-4.03,
4.624,40.02,-16.77,44.23,-17.00,2.04,-4.46,
4.626,40.02,-16.77,44.23,-16.52,2.98,-4.93,
4.627,40.02,-16.77,44.23,-16.34,3.23,-5.08,
4.627,40.02,-16.77,44.23,-15.88,3.66,-5.37,
4.628,21.77,-16.22,17.98,-15.88,3.66,-5.37,
4.628,21.77,-16.22,17.98,-15.44,4.09,-5.66,
4.629,21.77,-16.22,17.98,-15.08,4.44,-5.90,
4.63,21.77,-16.22,17.98,-14.59,4.91,-6.14,
4.63,21.77,-16.22,17.98,-14.42,5.05,-6.19,
4.631,21.77,-16.22,17.98,-14.10,5.35,-6.28,
4.631,1.74,-16.61,7.82,-14.10,5.35,-6.28,
4.632,1.74,-16.61,7.82,-13.77,5.62,-6.35,
4.632,1.74,-16.61,7.82,-13.45,5.88,-6.41,
4.635,1.74,-16.61,7.82,-12.97,6.23,-6.51,
4.637,1.74,-16.61,7.82,-12.82,6.36,-6.55,
4.639,1.74,-16.61,7.82,-12.51,6.59,-6.63,
4.641,-5.79,-12.10,4.32,-12.51,6.59,-6.63,
4.642,-5.79,-12.10,4.32,-12.20,6.82,-6.71,
4.643,-5.79,-12.10,4.32,-11.90,7.04,-6.81,
4.668,-5.79,-12.10,4.32,-11.44,7.36,-6.96,
4.669,-5.79,-12.10,4.32,-11.28,7.47,-7.01,
4.67,-5.79,-12.10,4.32,-10.93,7.67,-7.11,
4.67,-5.87,-8.50,3.87,-10.93,7.67,-7.11,
4.671,-5.87,-8.50,3.87,-10.58,7.89,-7.22,
4.671,-5.87,-8.50,3.87,-10.20,8.09,-7.32,
4.672,-5.87,-8.50,3.87,-9.61,8.41,-7.44,
4.672,-5.87,-8.50,3.87,-9.39,8.52,-7.47,
4.672,-5.87,-8.50,3.87,-8.93,8.76,-7.51,
4.673,-7.42,-6.14,7.27,-8.93,8.76,-7.51,
4.673,-7.42,-6.14,7.27,-8.48,8.99,-7.53,
4.674,-7.42,-6.14,7.27,-8.09,9.22,-7.53,
4.674,-7.42,-6.14,7.27,-7.69,9.47,-7.61,
4.674,-7.42,-6.14,7.27,-7.59,9.55,-7.66,
4.675,-7.42,-6.14,7.27,-7.42,9.68,-7.74,
4.675,-6.58,-1.97,-1.43,-7.42,9.68,-7.74,
4.675,-6.58,-1.97,-1.43,-7.26,9.81,-7.82,
4.676,-6.58,-1.97,-1.43,-7.10,9.93,-7.91,
4.676,-6.58,-1.97,-1.43,-6.85,10.12,-8.04,
4.677,-6.58,-1.97,-1.43,-6.76,10.18,-8.08,
4.679,-6.58,-1.97,-1.43,-6.59,10.29,-8.16,
4.681,-5.07,-0.13,-5.63,-6.59,10.29,-8.16,
4.681,-5.07,-0.13,-5.63,-6.42,10.41,-8.24,
4.683,-5.07,-0.13,-5.63,-6.24,10.52,-8.32,
4.686,-5.07,-0.13,-5.63,-5.97,10.69,-8.44,
4.689,-5.07,-0.13,-5.63,-5.87,10.74,-8.48,
4.69,-5.07,-0.13,-5.63,-5.69,10.85,-8.56,
4.693,-4.80,0.55,-6.01,-5.69,10.85,-8.56,
4.693,-4.80,0.55,-6.01,-5.50,10.95,-8.63,
4.694,-4.80,0.55,-6.01,-5.31,11.05,-8.71,
4.698,-4.80,0.55,-6.01,-5.01,11.18,-8.81,
4.699,-4.80,0.55,-6.01,-4.92,11.23,-8.85,
4.699,-4.80,0.55,-6.01,-4.71,11.32,-8.92,
4.701,-4.33,1.23,-5.84,-4.71,11.32,-8.92,
4.701,-4.33,1.23,-5.84,-4.51,11.41,-8.98,
4.703,-4.33,1.23,-5.84,-4.30,11.48,-9.04,
4.705,-4.33,1.23,-5.84,-3.99,11.60,-9.13,
4.706,-4.33,1.23,-5.84,-3.88,11.63,-9.16,
4.711,-4.33,1.23,-5.84,-3.67,11.70,-9.21,
4.712,-4.12,1.61,-5.75,-3.67,11.70,-9.21,
4.712,-4.12,1.61,-5.75,-3.46,11.77,-9.26,
4.713,-4.12,1.61,-5.75,-3.24,11.83,-9.31,
4.72,-4.12,1.61,-5.75,-2.90,11.91,-9.39,
4.72,-4.12,1.61,-5.75,-2.79,11.94,-9.41,
4.72,-4.12,1.61,-5.75,-2.57,11.99,-9.45,
4.721,-3.65,2.06,-5.56,-2.57,11.99,-9.45,
4.721,-3.65,2.06,-5.56,-2.34,12.04,-9.49,
4.723,-3.65,2.06,-5.56,-2.12,12.08,-9.52,
4.731,-3.65,2.06,-5.56,-1.77,12.14,-9.57,
4.732,-3.65,2.06,-5.56,-1.66,12.15,-9.59,
4.733,-3.65,2.06,-5.56,-1.42,12.17,-9.61,
4.734,-3.37,2.22,-5.57,-1.42,12.17,-9.61,
4.734,-3.37,2.22,-5.57,-1.19,12.20,-9.63,
4.735,-3.37,2.22,-5.57,-0.96,12.22,-9.65,
4.736,-3.37,2.22,-5.57,-0.61,12.24,-9.67,
4.737,-3.37,2.22,-5.57,-0.49,12.25,-9.68,
4.739,-3.37,2.22,-5.57,-0.25,12.26,-9.69,
4.74,-2.87,2.43,-5.56,-0.25,12.26,-9.69,
4.741,-2.87,2.43,-5.56,-0.02,12.26,-9.70,
4.743,-2.87,2.43,-5.56,0.22,12.25,-9.70,
4.746,-2.87,2.43,-5.56,0.57,12.24,-9.70,
4.746,-2.87,2.43,-5.56,0.69,12.24,-9.69,
4.749,-2.87,2.43,-5.56,0.92,12.22,-9.68,
4.751,-2.49,2.34,-5.78,0.92,12.22,-9.68,
4.751,-2.49,2.34,-5.78,1.16,12.20,-9.67,
4.753,-2.49,2.34,-5.78,1.39,12.18,-9.66,
4.756,-2.49,2.34,-5.78,1.74,12.14,-9.63,
4.757,-2.49,2.34,-5.78,1.86,12.12,-9.62,
4.759,-2.49,2.34,-5.78,2.09,12.08,-9.59,
4.76,-1.92,2.27,-5.88,2.09,12.08,-9.59,
4.761,-1.92,2.27,-5.88,2.31,12.04,-9.56,
4.763,-1.92,2.27,-5.88,2.54,11.99,-9.53,
4.766,-1.92,2.27,-5.88,2.88,11.92,-9.48,
4.767,-1.92,2.27,-5.88,2.99,11.89,-9.46,
4.769,-1.92,2.27,-5.88,3.21,11.84,-9.42,
4.771,-1.48,1.92,-6.23,3.21,11.84,-9.42,
4.772,-1.48,1.92,-6.23,3.43,11.78,-9.38,
4.773,-1.48,1.92,-6.23,3.64,11.71,-9.33,
4.776,-1.48,1.92,-6.23,3.96,11.61,-9.25,
4.778,-1.48,1.92,-6.23,4.06,11.57,-9.23,
4.778,-1.48,1.92,-6.23,4.27,11.50,-9.17,
4.781,-0.99,1.65,-6.42,4.27,11.50,-9.17,
4.781,-0.99,1.65,-6.42,4.48,11.42,-9.12,
4.783,-0.99,1.65,-6.42,4.68,11.34,-9.06,
4.786,-0.99,1.65,-6.42,4.98,11.22,-8.96,
4.787,-0.99,1.65,-6.42,5.08,11.17,-8.93,
4.788,-0.99,1.65,-6.42,5.27,11.08,-8.87,
4.791,-0.48,1.03,-6.89,5.27,11.08,-8.87,
4.793,-0.48,1.03,-6.89,5.46,10.99,-8.80,
4.796,-0.48,1.03,-6.89,5.65,10.90,-8.73,
4.796,-0.48,1.03,-6.89,5.93,10.75,-8.62,
4.797,-0.48,1.03,-6.89,6.02,10.70,-8.59,
4.799,-0.48,1.03,-6.89,6.19,10.60,-8.51,
4.801,0.07,0.60,-7.11,6.19,10.60,-8.51,
4.802,0.07,0.60,-7.11,6.37,10.49,-8.43,
4.803,0.07,0.60,-7.11,6.54,10.39,-8.35,
4.805,0.07,0.60,-7.11,6.79,10.22,-8.23,
4.806,0.07,0.60,-7.11,6.87,10.17,-8.19,
4.813,0.07,0.60,-7.11,7.03,10.06,-8.11,
4.814,0.59,-0.20,-7.52,7.03,10.06,-8.11,
4.844,0.59,-0.20,-7.52,7.19,9.94,-8.03,
4.845,0.59,-0.20,-7.52,7.48,9.67,-7.94,
4.845,0.59,-0.20,-7.52,12.31,2.09,-7.51,
4.846,0.59,-0.20,-7.52,14.87,-1.92,-7.19,
4.846,0.59,-0.20,-7.52,17.50,-5.77,-6.97,
4.847,-8.18,-9.40,31.93,17.50,-5.77,-6.97,
4.848,-8.18,-9.40,31.93,17.56,-6.09,-7.10,
4.848,-8.18,-9.40,31.93,17.41,-6.26,-7.23,
4.849,-8.18,-9.40,31.93,17.30,-6.68,-7.43,
4.85,-8.18,-9.40,31.93,17.23,-6.77,-7.50,
4.85,-8.18,-9.40,31.93,17.16,-7.10,-7.64,
4.851,-4.34,-17.10,-2.98,17.16,-7.10,-7.64,
4.851,-4.34,-17.10,-2.98,17.00,-7.27,-7.79,
4.852,-4.34,-17.10,-2.98,16.92,-7.59,-7.94,
4.852,-4.34,-17.10,-2.98,16.70,-7.92,-8.17,
4.853,-4.34,-17.10,-2.98,16.65,-8.09,-8.26,
4.853,-4.34,-17.10,-2.98,16.48,-8.30,-8.42,
4.853,-4.81,-18.89,-8.19,16.48,-8.30,-8.42,
4.854,-4.81,-18.89,-8.19,16.35,-8.60,-8.58,
4.854,-4.81,-18.89,-8.19,16.18,-8.83,-8.75,
4.854,-4.81,-18.89,-8.19,14.93,-7.75,-8.85,
4.855,-4.81,-18.89,-8.19,7.40,4.73,-7.91,
4.855,-4.81,-18.89,-8.19,-7.90,34.88,-5.05,
4.855,-19.68,4.16,-30.32,-7.90,34.88,-5.05,
4.856,-19.68,4.16,-30.32,-6.50,34.88,-5.12,
4.857,-19.68,4.16,-30.32,-5.86,34.88,-5.59,
4.857,-19.68,4.16,-30.32,-4.99,6.54,-4.37,
4.857,-19.68,4.16,-30.32,-4.12,-13.60,-3.22,
4.861,-19.68,4.16,-30.32,-3.13,-22.05,-2.58,
4.862,-22.42,15.59,14.05,-3.13,-22.05,-2.58,
4.862,-22.42,15.59,14.05,-3.57,-19.72,-2.64,
4.863,-22.42,15.59,14.05,-3.80,-20.37,-2.55,
4.867,-22.42,15.59,14.05,-3.84,-20.18,-2.40,
4.867,-22.42,15.59,14.05,-3.83,-20.23,-2.36,
4.869,-22.42,15.59,14.05,-3.91,-20.19,-2.27,
4.871,-3.93,2.60,-4.81,-3.91,-20.19,-2.27,
4.871,-3.93,2.60,-4.81,-3.10,-18.36,-2.23,
4.873,-3.93,2.60,-4.81,0.49,-11.33,-2.50,
4.877,-3.93,2.60,-4.81,2.92,-6.45,-2.74,
4.878,-3.93,2.60,-4.81,2.78,-6.53,-2.75,
4.878,-3.93,2.60,-4.81,2.76,-6.51,-2.76,
4.881,-2.00,2.25,8.45,2.76,-6.51,-2.76,
4.881,-2.00,2.25,8.45,2.80,-6.56,-2.79,
4.883,-2.00,2.25,8.45,2.71,-6.49,-2.81,
4.886,-2.00,2.25,8.45,2.69,-6.55,-2.84,
4.887,-2.00,2.25,8.45,2.64,-6.51,-2.86,
4.889,-2.00,2.25,8.45,2.65,-6.60,-2.88,
4.895,-2.96,0.01,-6.92,2.65,-6.60,-2.88,
4.895,-2.96,0.01,-6.92,2.57,-6.53,-2.90,
4.895,-2.96,0.01,-6.92,2.57,-6.60,-2.92,
4.899,-2.96,0.01,-6.92,2.48,-6.55,-2.95,
4.899,-2.96,0.01,-6.92,2.48,-6.60,-2.95,
4.9,-2.96,0.01,-6.92,2.43,-6.60,-2.98,
4.9,-3.41,-0.17,-9.08,2.43,-6.60,-2.98,
4.901,-3.41,-0.17,-9.08,2.40,-6.62,-3.00,
4.903,-3.41,-0.17,-9.08,2.36,-6.63,-3.02,
4.906,-3.41,-0.17,-9.08,2.31,-6.66,-3.05,
4.908,-3.41,-0.17,-9.08,2.29,-6.66,-3.06,
4.909,-3.41,-0.17,-9.08,2.22,-6.62,-3.07,
4.911,-4.07,-0.47,-8.95,2.22,-6.62,-3.07,
